#timestamp [ns],w_RS_S_x [rad s^-1],w_RS_S_y [rad s^-1],w_RS_S_z [rad s^-1],a_RS_S_x [m s^-2],a_RS_S_y [m s^-2],a_RS_S_z [m s^-2]
1.40363657975856E+018,-0.0991347015,0.1473057889,0.0272271363,8.1476917083,-0.3759215833,-2.40262925
1.40363657976356E+018,-0.0991347015,0.1403244719,0.0293215314,8.0332807917,-0.4086104167,-2.40262925
1.40363657976856E+018,-0.0984365698,0.1277581012,0.0376991118,7.8861810417,-0.4249548333,-2.4353180833
1.40363657977356E+018,-0.10262536,0.1158898623,0.0453785606,7.8289755833,-0.3759215833,-2.4680069167
1.40363657977856E+018,-0.1054178868,0.1082104136,0.0516617459,7.7145646667,-0.4086104167,-2.5579012083
1.40363657978356E+018,-0.1089085453,0.0977384381,0.0565486678,7.6573592083,-0.4331270417,-2.6396232917
1.40363657978856E+018,-0.1103048087,0.0858701992,0.0614355897,7.5919815417,-0.465815875,-2.7050009583
1.40363657979356E+018,-0.1144935989,0.074700092,0.0600393263,7.5511205,-0.4739880833,-2.745862
1.40363657979856E+018,-0.1110029404,0.0572467995,0.0621337214,7.5919815417,-0.514849125,-2.8847895417
1.40363657980356E+018,-0.1172861257,0.046774824,0.0614355897,7.624670375,-0.4821602917,-2.9256505833
1.40363657980856E+018,-0.1214749159,0.0335103216,0.053756141,7.60015375,-0.53936575,-2.9338227917
1.40363657981356E+018,-0.1193805208,0.0118682389,0.0411897703,7.7145646667,-0.5230213333,-2.966511625
1.40363657981856E+018,-0.1200786525,-0.0027925268,0.0335103216,7.7309090833,-0.4576436667,-2.9338227917
1.40363657982356E+018,-0.1172861257,-0.0195476876,0.0258308729,7.8371477917,-0.4494714583,-2.8521007083
1.40363657982856E+018,-0.1103048087,-0.0432841654,0.0153588974,8.0332807917,-0.4249548333,-2.7785508333
1.40363657983356E+018,-0.1075122819,-0.0649262482,0.0062831853,8.1313472917,-0.4004382083,-2.7131731667
1.40363657983856E+018,-0.0984365698,-0.081681409,0.0006981317,8.2539304167,-0.367749375,-2.6559677083
1.40363657984356E+018,-0.0893608577,-0.0935496479,-0.0013962634,8.3519969167,-0.416782625,-2.623278875
1.40363657984856E+018,-0.0781907505,-0.0991347015,-0.0034906585,8.2947914583,-0.3514049583,-2.5579012083
1.40363657985356E+018,-0.0712094335,-0.1075122819,0.0013962634,8.213069375,-0.3840937917,-2.6069344583
1.40363657985856E+018,-0.0656243799,-0.1214749159,0.0097738438,8.2457582083,-0.4086104167,-2.672312125
1.40363657986356E+018,-0.0628318531,-0.130550628,0.0181514242,8.115002875,-0.44129925,-2.7785508333
1.40363657986856E+018,-0.0586430629,-0.1319468915,0.0314159265,8.0251085833,-0.4903325,-2.8847895417
1.40363657987356E+018,-0.0481710874,-0.1466076572,0.0474729557,8.0005919583,-0.4494714583,-2.9828560417
1.40363657987856E+018,-0.0404916386,-0.1605702912,0.0642281165,7.9597309167,-0.4331270417,-3.08909475
1.40363657988356E+018,-0.0404916386,-0.1675516082,0.0733038286,7.9760753333,-0.4086104167,-3.18716125
1.40363657988856E+018,-0.0432841654,-0.1766273203,0.0767944871,7.9842475417,-0.4086104167,-3.2443667083
1.40363657989356E+018,-0.0446804289,-0.1891936909,0.0823795407,7.967903125,-0.367749375,-3.2688833333
1.40363657989856E+018,-0.0453785606,-0.2010619298,0.0740019603,8.016936375,-0.53936575,-3.211677875
1.40363657990356E+018,-0.0390953752,-0.2136283004,0.0712094335,8.164036125,-0.5720545833,-3.1953334583
1.40363657990856E+018,-0.0328121899,-0.2227040126,0.0649262482,8.3029636667,-0.612915625,-3.1708168333
1.40363657991356E+018,-0.0202458193,-0.2303834613,0.060737458,8.4664078333,-0.6782932917,-3.1054391667
1.40363657991856E+018,-0.0104719755,-0.2324778564,0.0614355897,8.629852,-0.5965712083,-3.08909475
1.40363657992356E+018,-0.0013962634,-0.2331759881,0.0642281165,8.6952296667,-0.4903325,-3.0482337083
1.40363657992856E+018,0.0076794487,-0.2275909345,0.0649262482,8.7442629167,-0.465815875,-3.0318892917
1.40363657993356E+018,0.0076794487,-0.2268928028,0.0691150384,8.7606073333,-0.3759215833,-3.0482337083
1.40363657993856E+018,0.0076794487,-0.2199114858,0.081681409,8.6870574583,-0.3595771667,-3.0727503333
1.40363657994356E+018,0.0048869219,-0.2164208272,0.0893608577,8.6380242083,-0.3514049583,-3.1299557917
1.40363657994856E+018,-0.0020943951,-0.2185152223,0.1012290966,8.6216797917,-0.2124774167,-3.1789890417
1.40363657995356E+018,-0.0076794487,-0.2115339053,0.1061160185,8.5971631667,-0.122583125,-3.1789890417
1.40363657995856E+018,-0.0202458193,-0.2101376419,0.1075122819,8.58081875,-0.073549875,-3.1953334583
1.40363657996356E+018,-0.0293215314,-0.2115339053,0.1110029404,8.5889909583,-0.122583125,-3.28522775
1.40363657996856E+018,-0.0383972435,-0.2038544566,0.1137954672,8.5236132917,-0.196133,-3.2688833333
1.40363657997356E+018,-0.0404916386,-0.1954768762,0.1214749159,8.4990966667,-0.3268883333,-3.2280222917
1.40363657997856E+018,-0.0335103216,-0.1975712713,0.1389282085,8.556302125,-0.53936575,-3.2361945
1.40363657998356E+018,-0.020943951,-0.1877974275,0.1521927108,8.5236132917,-0.6864655,-3.211677875
1.40363657998856E+018,-0.0048869219,-0.1801179788,0.1626646863,8.58081875,-0.8499096667,-3.2361945
1.40363657999356E+018,0.0097738438,-0.1738347935,0.1689478716,8.6380242083,-0.8662540833,-3.2361945
1.40363657999856E+018,0.0244346095,-0.1605702912,0.1696460033,8.6380242083,-0.8662540833,-3.2198500833
1.40363658000356E+018,0.0328121899,-0.1445132621,0.1682497399,8.6707130417,-0.8253930417,-3.2280222917
1.40363658000856E+018,0.0390953752,-0.1368338134,0.1549852376,8.7442629167,-0.53936575,-3.3179165833
1.40363658001356E+018,0.0390953752,-0.1312487597,0.1396263402,8.8096405833,-0.367749375,-3.38329425
1.40363658001856E+018,0.0342084533,-0.1214749159,0.13543755,8.899534875,-0.1797885833,-3.3751220417
1.40363658002356E+018,0.0174532925,-0.123569311,0.1298524963,8.97308475,0.0163444167,-3.3996386667
1.40363658002856E+018,0.0034906585,-0.1270599695,0.1263618378,9.0302902083,0.1062387083,-3.4241552917
1.40363658003356E+018,-0.013962634,-0.1277581012,0.1221730476,9.193734375,0.1307553333,-3.3914664583
1.40363658003856E+018,-0.027925268,-0.1298524963,0.116587994,9.4225562083,0.1634441667,-3.3914664583
1.40363658004356E+018,-0.0370009801,-0.1242674427,0.1075122819,9.5287949167,0.024516625,-3.3506054167
1.40363658004856E+018,-0.0432841654,-0.123569311,0.0949459113,9.6268614167,-0.0572054583,-3.3506054167
1.40363658005356E+018,-0.0432841654,-0.1172861257,0.0921533845,9.6922390833,-0.0572054583,-3.3669498333
1.40363658005856E+018,-0.041887902,-0.1137954672,0.0921533845,9.586000375,-0.220649625,-3.3424332083
1.40363658006356E+018,-0.0342084533,-0.1103048087,0.0991347015,9.5533115417,-0.367749375,-3.3914664583
1.40363658006856E+018,-0.0258308729,-0.1110029404,0.123569311,9.3816951667,-0.4331270417,-3.4159830833
1.40363658007356E+018,-0.013962634,-0.1082104136,0.1438151304,9.3244897083,-0.4985047083,-3.4159830833
1.40363658007856E+018,0.0020943951,-0.0984365698,0.1668534765,9.3980395833,-0.6456044583,-3.4895329583
1.40363658008356E+018,0.0118682389,-0.0893608577,0.1822123739,9.4225562083,-0.6701210833,-3.652977125
1.40363658008856E+018,0.0237364778,-0.0733038286,0.1926843494,9.389867375,-0.6456044583,-3.77556025
1.40363658009356E+018,0.0293215314,-0.0628318531,0.1968731396,9.36535075,-0.63743225,-3.8327657083
1.40363658009856E+018,0.0293215314,-0.0579449312,0.1933824811,9.3081452917,-0.5230213333,-3.849110125
1.40363658010356E+018,0.0307177948,-0.0509636142,0.184306769,9.218251,-0.5066769167,-3.8817989583
1.40363658010856E+018,0.0230383461,-0.0502654825,0.1752310569,9.242767625,-0.4985047083,-3.9553488333
1.40363658011356E+018,0.0202458193,-0.0523598776,0.163362818,9.36535075,-0.4331270417,-3.9880376667
1.40363658011856E+018,0.0230383461,-0.0509636142,0.1542871059,9.3980395833,-0.3840937917,-3.898143375
1.40363658012356E+018,0.0174532925,-0.053756141,0.1459095255,9.4797616667,-0.3759215833,-3.8654545417
1.40363658012856E+018,0.0104719755,-0.0516617459,0.1333431549,9.56148375,-0.3840937917,-3.7919046667
1.40363658013356E+018,0.0034906585,-0.0558505361,0.1256637061,9.610517,-0.4004382083,-3.702010375
1.40363658013856E+018,0.006981317,-0.0593411946,0.1151917306,9.65955025,-0.4821602917,-3.554910625
1.40363658014356E+018,0.0076794487,-0.060737458,0.1130973355,9.7494445417,-0.4494714583,-3.530394
1.40363658014856E+018,0.013962634,-0.0586430629,0.116587994,9.7739611667,-0.3759215833,-3.505877375
1.40363658015356E+018,0.0167551608,-0.0558505361,0.1249655744,9.85568325,-0.220649625,-3.5875994583
1.40363658015856E+018,0.0111701072,-0.0502654825,0.1298524963,9.929233125,-0.0898942917,-3.6856659583
1.40363658016356E+018,0.0083775804,-0.0516617459,0.1277581012,9.6513780417,-0.269682875,-3.554910625
1.40363658016856E+018,0.013962634,-0.0698131701,0.1256637061,9.56148375,-0.4985047083,-3.38329425
1.40363658017356E+018,0.0251327412,-0.074700092,0.1291543646,9.635033625,-0.588399,-3.5957716667
1.40363658017856E+018,0.0335103216,-0.0760963554,0.1158898623,9.75761675,-0.416782625,-3.8164212917
1.40363658018356E+018,0.0286233997,-0.0649262482,0.0963421747,9.880199875,-0.3105439167,-3.9390044167
1.40363658018856E+018,0.0188495559,-0.0544542727,0.088662726,9.75761675,-0.2615106667,-3.947176625
1.40363658019356E+018,0.0146607657,-0.0635299848,0.0774926188,9.5451393333,-0.3840937917,-3.87362675
1.40363658019856E+018,0.0041887902,-0.0642281165,0.0565486678,9.7085835,-0.4739880833,-3.898143375
1.40363658020356E+018,-0.0027925268,-0.0753982237,0.0397935069,9.7657889583,-0.4903325,-4.0043820833
1.40363658020856E+018,-0.0055850536,-0.081681409,0.0300196631,9.782133375,-0.5557101667,-3.9553488333
1.40363658021356E+018,-0.0076794487,-0.0781907505,0.027925268,9.8883720833,-0.63743225,-3.9553488333
1.40363658021856E+018,-0.0076794487,-0.0802851456,0.0335103216,9.8883720833,-0.6047434167,-3.92266
1.40363658022356E+018,-0.0041887902,-0.0844739358,0.041887902,9.9700941667,-0.5720545833,-3.8899711667
1.40363658022856E+018,-0.0020943951,-0.0733038286,0.0565486678,9.9946107917,-0.6537766667,-3.8164212917
1.40363658023356E+018,-0.0027925268,-0.0781907505,0.0670206433,9.880199875,-0.710982125,-3.77556025
1.40363658023856E+018,0.0048869219,-0.0788888822,0.0719075652,9.8393388333,-0.661948875,-3.7592158333
1.40363658024356E+018,0.0111701072,-0.0809832773,0.0712094335,9.7249279167,-0.6292600417,-3.751043625
1.40363658024856E+018,0.0104719755,-0.0928515162,0.0691150384,9.7903055833,-0.5230213333,-3.8164212917
1.40363658025356E+018,0.0062831853,-0.0949459113,0.0600393263,9.8229944167,-0.392266,-3.8817989583
1.40363658025856E+018,0.0027925268,-0.0942477796,0.0502654825,9.7657889583,-0.416782625,-3.9635210417
1.40363658026356E+018,0.0027925268,-0.1005309649,0.0397935069,9.8720276667,-0.4086104167,-4.0534153333
1.40363658026856E+018,-0.0027925268,-0.0998328332,0.0244346095,9.782133375,-0.4004382083,-4.1106207917
1.40363658027356E+018,-0.0104719755,-0.1075122819,0.006981317,9.7657889583,-0.4249548333,-4.1759984583
1.40363658027856E+018,-0.0146607657,-0.1214749159,-0.0076794487,9.831166625,-0.318716125,-4.2495483333
1.40363658028356E+018,-0.0174532925,-0.1256637061,-0.0188495559,9.7903055833,-0.2941995,-4.2577205417
1.40363658028856E+018,-0.020943951,-0.1375319451,-0.0335103216,9.7657889583,-0.318716125,-4.3067537917
1.40363658029356E+018,-0.0272271363,-0.1438151304,-0.0439822972,9.782133375,-0.3514049583,-4.3312704167
1.40363658029856E+018,-0.0272271363,-0.1542871059,-0.046774824,9.6922390833,-0.34323275,-4.2250317083
1.40363658030356E+018,-0.0202458193,-0.1556833693,-0.0425860337,9.635033625,-0.4576436667,-4.1759984583
1.40363658030856E+018,-0.0090757121,-0.1598721595,-0.0328121899,9.5451393333,-0.514849125,-4.06975975
1.40363658031356E+018,0.0006981317,-0.1759291886,-0.0160570291,9.389867375,-0.5802267917,-3.9798654583
1.40363658031856E+018,0.0132645023,-0.1857030324,0.0104719755,9.3326619167,-0.6701210833,-3.9063155833
1.40363658032356E+018,0.0300196631,-0.1954768762,0.0286233997,9.340834125,-0.7191543333,-3.87362675
1.40363658032856E+018,0.0425860337,-0.1968731396,0.0446804289,9.3735229583,-0.7518431667,-3.849110125
1.40363658033356E+018,0.0502654825,-0.1968731396,0.060737458,9.5696559583,-0.6537766667,-3.9063155833
1.40363658033856E+018,0.0579449312,-0.2003637981,0.0691150384,9.684066875,-0.4821602917,-3.9880376667
1.40363658034356E+018,0.0586430629,-0.1975712713,0.0795870139,9.684066875,-0.34323275,-4.0207265
1.40363658034856E+018,0.0439822972,-0.2024581932,0.0914552528,9.684066875,-0.2941995,-4.0125542917
1.40363658035356E+018,0.0342084533,-0.2108357736,0.0970403064,9.684066875,-0.2369940417,-4.0207265
1.40363658035856E+018,0.0223402144,-0.2275909345,0.095644043,9.7167557083,-0.1797885833,-4.0288987083
1.40363658036356E+018,0.0104719755,-0.2352703832,0.0893608577,9.7903055833,-0.2043052083,-4.045243125
1.40363658036856E+018,0.0006981317,-0.245044227,0.074700092,9.8965442917,-0.2043052083,-4.1106207917
1.40363658037356E+018,-0.0104719755,-0.2576105976,0.0579449312,10.0191274167,-0.171616375,-4.1024485833
1.40363658037856E+018,-0.0167551608,-0.2645919146,0.0342084533,10.0681606667,-0.220649625,-4.1269652083
1.40363658038356E+018,-0.0230383461,-0.2708750999,0.0195476876,10.0845050833,-0.2288218333,-4.1106207917
1.40363658038856E+018,-0.0251327412,-0.2827433388,0.0062831853,10.0681606667,-0.24516625,-4.045243125
1.40363658039356E+018,-0.0237364778,-0.2925171826,0.0006981317,10.027299625,-0.3350605417,-4.0615875417
1.40363658039856E+018,-0.0160570291,-0.3029891581,0.0006981317,10.0845050833,-0.4331270417,-4.1351374167
1.40363658040356E+018,-0.0083775804,-0.3134611337,0.0111701072,10.1662271667,-0.4494714583,-4.1596540417
1.40363658040856E+018,0.0048869219,-0.3155555288,0.0181514242,10.1417105417,-0.514849125,-4.2332039167
1.40363658041356E+018,0.0083775804,-0.319744319,0.0272271363,10.223432625,-0.53936575,-4.314926
1.40363658041856E+018,0.0195476876,-0.3225368458,0.0404916386,10.3133269167,-0.4985047083,-4.4129925
1.40363658042356E+018,0.020943951,-0.3225368458,0.0453785606,10.3051547083,-0.588399,-4.4211647083
1.40363658042856E+018,0.0251327412,-0.326725636,0.0495673508,10.4522544583,-0.612915625,-4.4947145833
1.40363658043356E+018,0.0237364778,-0.3309144262,0.060737458,10.4849432917,-0.514849125,-4.4701979583
1.40363658043856E+018,0.0237364778,-0.3309144262,0.0719075652,10.5503209583,-0.5311935417,-4.5192312083
1.40363658044356E+018,0.020943951,-0.3330088213,0.0809832773,10.6729040833,-0.44129925,-4.5519200417
1.40363658044856E+018,0.0132645023,-0.3364994798,0.0942477796,10.83634825,-0.3350605417,-4.511059
1.40363658045356E+018,0.006981317,-0.3344050847,0.1005309649,10.8935537083,-0.3268883333,-4.5519200417
1.40363658045856E+018,-0.0027925268,-0.3274237677,0.0977384381,10.9997924167,-0.3595771667,-4.5682644583
1.40363658046356E+018,-0.0090757121,-0.3225368458,0.0921533845,11.0733422917,-0.367749375,-4.6172977083
1.40363658046856E+018,-0.0132645023,-0.3204424507,0.0844739358,11.03248125,-0.3595771667,-4.584608875
1.40363658047356E+018,-0.0153588974,-0.3162536605,0.0712094335,11.0488256667,-0.3840937917,-4.6990197917
1.40363658047856E+018,-0.0146607657,-0.3239331092,0.0684169067,11.106031125,-0.3105439167,-4.7480530417
1.40363658048356E+018,-0.0125663706,-0.3281218994,0.0621337214,11.179581,-0.318716125,-4.8216029167
1.40363658048856E+018,-0.0167551608,-0.3274237677,0.0558505361,11.42474725,-0.3840937917,-4.95235825
1.40363658049356E+018,-0.0104719755,-0.3323106896,0.0586430629,11.5881914167,-0.3840937917,-5.0177359167
1.40363658049856E+018,0.0041887902,-0.3295181628,0.0628318531,11.7107745417,-0.465815875,-5.0831135833
1.40363658050356E+018,0.0167551608,-0.3232349775,0.0760963554,11.8987353333,-0.588399,-5.173007875
1.40363658050856E+018,0.0307177948,-0.3113667386,0.0977384381,12.1030405417,-0.5066769167,-5.2792465833
1.40363658051356E+018,0.0460766923,-0.3057816849,0.1186823891,12.1275571667,-0.4903325,-5.3364520417
1.40363658051856E+018,0.0509636142,-0.2904227875,0.1368338134,12.1193849583,-0.4821602917,-5.4100019167
1.40363658052356E+018,0.0565486678,-0.2792526803,0.1480039206,12.1765904167,-0.4004382083,-5.4590351667
1.40363658052856E+018,0.0516617459,-0.2694788365,0.1500983157,12.1193849583,-0.2778550833,-5.5325850417
1.40363658053356E+018,0.0474729557,-0.2597049927,0.1452113938,12.0785239167,-0.2941995,-5.565273875
1.40363658053856E+018,0.0404916386,-0.2492330172,0.1312487597,12.0948683333,-0.2778550833,-5.6224793333
1.40363658054356E+018,0.034906585,-0.2345722515,0.1228711793,11.9968018333,-0.3105439167,-5.63882375
1.40363658054856E+018,0.0293215314,-0.2157226955,0.1117010721,12.01314625,-0.367749375,-5.614307125
1.40363658055356E+018,0.0237364778,-0.1996656664,0.0998328332,11.988629625,-0.4004382083,-5.6796847917
1.40363658055856E+018,0.0286233997,-0.184306769,0.095644043,11.9559407917,-0.416782625,-5.6224793333
1.40363658056356E+018,0.0328121899,-0.1661553448,0.0914552528,12.0049740417,-0.4739880833,-5.5979627083
1.40363658056856E+018,0.0335103216,-0.1466076572,0.0893608577,12.086696125,-0.563882375,-5.6224793333
1.40363658057356E+018,0.046774824,-0.1361356817,0.0907571211,12.1684182083,-0.563882375,-5.6306515417
1.40363658057856E+018,0.0572467995,-0.1200786525,0.0970403064,12.2419680833,-0.6047434167,-5.5979627083
1.40363658058356E+018,0.0649262482,-0.1033234917,0.10262536,12.3727234167,-0.5802267917,-5.5979627083
1.40363658058856E+018,0.0670206433,-0.0865683309,0.1089085453,12.3972400417,-0.4821602917,-5.6306515417
1.40363658059356E+018,0.0663225116,-0.0628318531,0.1130973355,12.3482067917,-0.514849125,-5.614307125
1.40363658059856E+018,0.0663225116,-0.0432841654,0.1130973355,12.30734575,-0.563882375,-5.6224793333
1.40363658060356E+018,0.0642281165,-0.0293215314,0.1158898623,12.20927925,-0.4903325,-5.6306515417
1.40363658060856E+018,0.0558505361,-0.006981317,0.1103048087,12.0703517083,-0.465815875,-5.6224793333
1.40363658061356E+018,0.0446804289,0.006981317,0.1054178868,11.9232519583,-0.465815875,-5.6061349167
1.40363658061856E+018,0.0363028484,0.0216420827,0.0977384381,11.8251854583,-0.4004382083,-5.5571016667
1.40363658062356E+018,0.0237364778,0.0363028484,0.0907571211,11.645396875,-0.4331270417,-5.5080684167
1.40363658062856E+018,0.0118682389,0.0481710874,0.0809832773,11.5555025833,-0.5557101667,-5.4508629583
1.40363658063356E+018,0.0006981317,0.0635299848,0.0726056969,11.62088025,-0.5557101667,-5.3854852917
1.40363658063856E+018,-0.0041887902,0.0740019603,0.0684169067,11.5146415417,-0.6047434167,-5.320107625
1.40363658064356E+018,-0.0083775804,0.081681409,0.0663225116,11.547330375,-0.6864655,-5.2629021667
1.40363658064856E+018,-0.0132645023,0.0977384381,0.0649262482,11.6535690833,-0.5965712083,-5.271074375
1.40363658065356E+018,-0.013962634,0.1061160185,0.0635299848,11.6290524583,-0.563882375,-5.1975245
1.40363658065856E+018,-0.0174532925,0.1179842574,0.0586430629,11.6290524583,-0.4985047083,-5.1076302083
1.40363658066356E+018,-0.0223402144,0.1263618378,0.0558505361,11.6862579167,-0.4494714583,-5.1158024167
1.40363658066856E+018,-0.0286233997,0.1368338134,0.046774824,11.645396875,-0.34323275,-5.0831135833
1.40363658067356E+018,-0.0342084533,0.1480039206,0.034906585,11.5391581667,-0.318716125,-5.074941375
1.40363658067856E+018,-0.0432841654,0.1619665546,0.0188495559,11.4819527083,-0.2615106667,-5.099458
1.40363658068356E+018,-0.0558505361,0.1710422667,0.006981317,11.3430251667,-0.1144109167,-5.099458
1.40363658068856E+018,-0.0663225116,0.1815142422,-0.0020943951,11.204097625,-0.0898942917,-5.0912857917
1.40363658069356E+018,-0.0767944871,0.1933824811,-0.0104719755,11.0488256667,-0.122583125,-5.074941375
1.40363658069856E+018,-0.0802851456,0.1954768762,-0.0181514242,10.8445204583,-0.171616375,-4.9932192917
1.40363658070356E+018,-0.0830776724,0.2059488517,-0.027925268,10.73828175,-0.2941995,-5.0013915
1.40363658070856E+018,-0.0865683309,0.2087413785,-0.0397935069,10.8036594167,-0.3595771667,-4.9850470833
1.40363658071356E+018,-0.0844739358,0.2136283004,-0.0411897703,10.7546261667,-0.34323275,-4.9114972083
1.40363658071856E+018,-0.0851720675,0.2247984077,-0.0439822972,10.7219373333,-0.318716125,-4.7889140833
1.40363658072356E+018,-0.0837758041,0.2282890662,-0.0495673508,10.762798375,-0.3268883333,-4.75622525
1.40363658072856E+018,-0.0865683309,0.2317797247,-0.0495673508,10.8853815,-0.24516625,-4.7153642083
1.40363658073356E+018,-0.0914552528,0.2345722515,-0.0460766923,10.8935537083,-0.1797885833,-4.6418143333
1.40363658073856E+018,-0.0963421747,0.2359685149,-0.0383972435,10.958931375,-0.1634441667,-4.6254699167
1.40363658074356E+018,-0.1061160185,0.2359685149,-0.0321140582,11.0161368333,-0.122583125,-4.584608875
1.40363658074856E+018,-0.109606677,0.2387610417,-0.0335103216,11.0161368333,-0.171616375,-4.5437478333
1.40363658075356E+018,-0.1207767842,0.2443460953,-0.0446804289,11.03248125,-0.1879607917,-4.6009532917
1.40363658075856E+018,-0.1347394183,0.2499311489,-0.0502654825,10.9425869583,-0.196133,-4.65815875
1.40363658076356E+018,-0.1375319451,0.2597049927,-0.0565486678,10.6892485,-0.2860272917,-4.6499865417
1.40363658076856E+018,-0.1403244719,0.2687807048,-0.0530580093,10.4767710833,-0.3268883333,-4.6745031667
1.40363658077356E+018,-0.1396263402,0.2708750999,-0.041887902,10.2888102917,-0.416782625,-4.6990197917
1.40363658077856E+018,-0.1382300768,0.2757620218,-0.0356047167,9.978266375,-0.3268883333,-4.6908475833
1.40363658078356E+018,-0.1333431549,0.2834414705,-0.0286233997,9.85568325,-0.367749375,-4.682675375
1.40363658078856E+018,-0.1368338134,0.286932129,-0.0293215314,9.831166625,-0.3350605417,-4.7480530417
1.40363658079356E+018,-0.1438151304,0.2841396022,-0.034906585,9.8475110417,-0.2043052083,-4.731708625
1.40363658079856E+018,-0.1556833693,0.2841396022,-0.0488692191,9.8720276667,-0.3105439167,-4.65815875
1.40363658080356E+018,-0.1682497399,0.2904227875,-0.0698131701,9.9700941667,-0.34323275,-4.6172977083
1.40363658080856E+018,-0.1738347935,0.2925171826,-0.0726056969,10.0191274167,-0.3268883333,-4.5519200417
1.40363658081356E+018,-0.177325452,0.293913446,-0.067718775,10.027299625,-0.3268883333,-4.4293369167
1.40363658081856E+018,-0.1815142422,0.300894763,-0.0516617459,10.125366125,-0.3105439167,-4.339442625
1.40363658082356E+018,-0.1864011641,0.3001966313,-0.034906585,10.2316048333,-0.2941995,-4.2740649583
1.40363658082856E+018,-0.1947787445,0.3043854215,-0.027925268,10.24794925,-0.2533384583,-4.1841706667
1.40363658083356E+018,-0.1989675347,0.3113667386,-0.0328121899,10.1825715833,-0.220649625,-4.143309625
1.40363658083856E+018,-0.2066469834,0.3253293726,-0.0404916386,10.0354718333,-0.1797885833,-4.1351374167
1.40363658084356E+018,-0.2150245638,0.3330088213,-0.046774824,9.7494445417,-0.024516625,-4.0779319583
1.40363658084856E+018,-0.2247984077,0.3364994798,-0.0579449312,9.4961060833,0.024516625,-4.0779319583
1.40363658085356E+018,-0.2373647783,0.3385938749,-0.074700092,9.2100787917,0.0326888333,-4.0615875417
1.40363658085856E+018,-0.2485348855,0.3364994798,-0.0760963554,8.9403959167,-0.0163444167,-4.0615875417
1.40363658086356E+018,-0.252025544,0.3371976115,-0.0733038286,8.7197462917,-0.14709975,-4.045243125
1.40363658086856E+018,-0.2555162025,0.3344050847,-0.0726056969,8.6380242083,-0.2288218333,-4.0534153333
1.40363658087356E+018,-0.2485348855,0.3316125579,-0.0726056969,8.48275225,-0.2860272917,-4.0043820833
1.40363658087856E+018,-0.2471386221,0.3323106896,-0.074700092,8.4664078333,-0.3759215833,-3.9308322083
1.40363658088356E+018,-0.2394591734,0.3274237677,-0.074700092,8.5399577083,-0.4331270417,-3.9798654583
1.40363658088856E+018,-0.2303834613,0.3288200311,-0.0726056969,8.6135075833,-0.4739880833,-3.9553488333
1.40363658089356E+018,-0.2220058809,0.3232349775,-0.0628318531,8.67888525,-0.5475379583,-3.8817989583
1.40363658089856E+018,-0.2087413785,0.3274237677,-0.0502654825,8.8423294167,-0.6047434167,-3.8654545417
1.40363658090356E+018,-0.1905899543,0.3239331092,-0.0363028484,8.9403959167,-0.612915625,-3.8245935
1.40363658090856E+018,-0.1724385301,0.3225368458,-0.0181514242,8.997601375,-0.5230213333,-3.751043625
1.40363658091356E+018,-0.1480039206,0.3281218994,0,9.0139457917,-0.5066769167,-3.6856659583
1.40363658091856E+018,-0.1319468915,0.3274237677,0.0125663706,9.0139457917,-0.3759215833,-3.7428714167
1.40363658092356E+018,-0.1179842574,0.3316125579,0.0181514242,8.825985,-0.2941995,-3.702010375
1.40363658092856E+018,-0.1033234917,0.3392920066,0.0188495559,8.6461964167,-0.2941995,-3.67749375
1.40363658093356E+018,-0.0991347015,0.3371976115,0.0188495559,8.4010301667,-0.2288218333,-3.6693215417
1.40363658093856E+018,-0.0914552528,0.3316125579,0.0167551608,8.2048971667,-0.1307553333,-3.6856659583
1.40363658094356E+018,-0.0844739358,0.3344050847,0.0132645023,8.1558639167,-0.0898942917,-3.7346992083
1.40363658094856E+018,-0.0753982237,0.3309144262,0.0041887902,8.164036125,-0.0163444167,-3.77556025
1.40363658095356E+018,-0.0726056969,0.3232349775,-0.006981317,8.1231750833,0.122583125,-3.751043625
1.40363658095856E+018,-0.0691150384,0.3148573971,-0.0195476876,8.0741418333,0.220649625,-3.6448049167
1.40363658096356E+018,-0.0719075652,0.3085742118,-0.0335103216,8.115002875,0.220649625,-3.5467384167
1.40363658096856E+018,-0.0691150384,0.3050835532,-0.0328121899,8.1476917083,0.2369940417,-3.4650163333
1.40363658097356E+018,-0.0558505361,0.3064798167,-0.0244346095,8.0577974167,0.1389275417,-3.4159830833
1.40363658097856E+018,-0.0439822972,0.3078760801,-0.0027925268,8.065969625,-0.0408610417,-3.358777625
1.40363658098356E+018,-0.0237364778,0.3043854215,0.0146607657,7.99241975,-0.1552719583,-3.3015721667
1.40363658098856E+018,-0.006981317,0.3106686069,0.0237364778,7.9106976667,-0.1879607917,-3.1953334583
1.40363658099356E+018,0.0055850536,0.3085742118,0.0363028484,7.99241975,-0.2533384583,-3.211677875
1.40363658099856E+018,0.020943951,0.3015928947,0.0516617459,7.99241975,-0.2124774167,-3.2525389167
1.40363658100356E+018,0.0293215314,0.2932153143,0.074700092,7.9433865,-0.1389275417,-3.1789890417
1.40363658100856E+018,0.034906585,0.2876302607,0.0984365698,7.8861810417,-0.1062387083,-3.1299557917
1.40363658101356E+018,0.0390953752,0.2806489437,0.1277581012,8.065969625,-0.0326888333,-3.1299557917
1.40363658101856E+018,0.0383972435,0.2820452071,0.1535889742,8.2702748333,0.024516625,-3.2035056667
1.40363658102356E+018,0.0404916386,0.2925171826,0.1661553448,8.4255467917,0.024516625,-3.1953334583
1.40363658102856E+018,0.0397935069,0.300894763,0.1619665546,8.5317855,0.1144109167,-3.3506054167
1.40363658103356E+018,0.0404916386,0.3022910264,0.142418867,8.5317855,0.3023717083,-3.3669498333
1.40363658103856E+018,0.0370009801,0.3064798167,0.1172861257,8.4255467917,0.4331270417,-3.3506054167
1.40363658104356E+018,0.0335103216,0.2994984996,0.0830776724,8.3928579583,0.5066769167,-3.3424332083
1.40363658104856E+018,0.0258308729,0.2883283924,0.0635299848,8.311135875,0.6537766667,-3.3751220417
1.40363658105356E+018,0.0188495559,0.2785545486,0.0544542727,8.3274802917,0.6946377083,-3.3179165833
1.40363658105856E+018,0.0104719755,0.2771582852,0.0453785606,8.3519969167,0.5557101667,-3.2933999583
1.40363658106356E+018,0.0027925268,0.2715732316,0.0383972435,8.3765135417,0.4903325,-3.2525389167
1.40363658106856E+018,0.0020943951,0.2708750999,0.0335103216,8.311135875,0.3759215833,-3.1299557917
1.40363658107356E+018,-0.0006981317,0.2806489437,0.0328121899,8.2702748333,0.3105439167,-3.0482337083
1.40363658107856E+018,-0.0097738438,0.2827433388,0.0432841654,8.1967249583,0.2533384583,-3.0318892917
1.40363658108356E+018,-0.0125663706,0.2778564169,0.0642281165,8.065969625,0.196133,-2.8847895417
1.40363658108856E+018,-0.0188495559,0.2785545486,0.0984365698,7.967903125,0.1062387083,-2.7785508333
1.40363658109356E+018,-0.0237364778,0.2771582852,0.1410226036,8.0251085833,0,-2.79489525
1.40363658109856E+018,-0.0342084533,0.2841396022,0.1780235837,8.0823140417,0.0163444167,-2.819411875
1.40363658110356E+018,-0.0397935069,0.2981022362,0.2038544566,8.213069375,0.0898942917,-2.8275840833
1.40363658110856E+018,-0.0502654825,0.312763002,0.2303834613,8.237586,0.0572054583,-2.89296175
1.40363658111356E+018,-0.0600393263,0.3281218994,0.23806291,8.1558639167,0.024516625,-2.9093061667
1.40363658111856E+018,-0.0558505361,0.3351032164,0.2443460953,7.9760753333,0.0163444167,-2.917478375
1.40363658112356E+018,-0.0502654825,0.3371976115,0.245044227,7.967903125,0.04903325,-3.0318892917
1.40363658112856E+018,-0.0446804289,0.3427826651,0.2387610417,8.0823140417,0.14709975,-3.18716125
1.40363658113356E+018,-0.0342084533,0.3392920066,0.231081593,8.0251085833,0.2369940417,-3.260711125
1.40363658113856E+018,-0.0265290046,0.3441789285,0.2185152223,8.041453,0.2860272917,-3.334261
1.40363658114356E+018,-0.0160570291,0.3392920066,0.1968731396,8.0741418333,0.4086104167,-3.3669498333
1.40363658114856E+018,-0.0104719755,0.3385938749,0.170344135,8.041453,0.465815875,-3.2933999583
1.40363658115356E+018,0.0013962634,0.3364994798,0.1466076572,7.9760753333,0.416782625,-3.1789890417
1.40363658115856E+018,0.006981317,0.3288200311,0.1228711793,7.9597309167,0.4576436667,-3.1054391667
1.40363658116356E+018,0.013962634,0.3302162945,0.1151917306,7.9025254583,0.44129925,-3.0237170833
1.40363658116856E+018,0.0104719755,0.3316125579,0.1123992038,7.820803375,0.4004382083,-2.9828560417
1.40363658117356E+018,0.006981317,0.3358013481,0.1158898623,7.84532,0.3595771667,-2.966511625
1.40363658117856E+018,-0.0006981317,0.3392920066,0.1193805208,7.8289755833,0.2860272917,-2.917478375
1.40363658118356E+018,-0.0090757121,0.3434807968,0.1284562329,7.7145646667,0.1797885833,-2.8112396667
1.40363658118856E+018,-0.0216420827,0.3462733236,0.1389282085,7.7063924583,0.0572054583,-2.770378625
1.40363658119356E+018,-0.034906585,0.3441789285,0.1591740278,7.7145646667,-0.0408610417,-2.7050009583
1.40363658119856E+018,-0.0460766923,0.3441789285,0.1822123739,7.7881145417,-0.0898942917,-2.6559677083
1.40363658120356E+018,-0.0523598776,0.3553490357,0.1996656664,7.918869875,-0.2288218333,-2.6477955
1.40363658120856E+018,-0.053756141,0.3630284844,0.2192133541,8.0823140417,-0.2778550833,-2.7376897917
1.40363658121356E+018,-0.0523598776,0.3769911184,0.2352703832,8.115002875,-0.2615106667,-2.79489525
1.40363658121856E+018,-0.0439822972,0.3979350695,0.245044227,8.0577974167,-0.1797885833,-2.8602729167
1.40363658122356E+018,-0.0342084533,0.4049163865,0.2387610417,7.9597309167,-0.0898942917,-2.966511625
1.40363658122856E+018,-0.0272271363,0.401425728,0.224100276,7.84532,0.0163444167,-2.9828560417
1.40363658123356E+018,-0.0195476876,0.3909537524,0.2108357736,7.6410147917,0.0408610417,-2.9828560417
1.40363658123856E+018,-0.0076794487,0.3776892501,0.1933824811,7.5592927083,0,-2.9992004583
1.40363658124356E+018,0.0020943951,0.3630284844,0.1710422667,7.5674649167,0.024516625,-2.99102825
1.40363658124856E+018,0.0174532925,0.354650904,0.1480039206,7.5838093333,-0.024516625,-3.0073726667
1.40363658125356E+018,0.0335103216,0.3518583772,0.1221730476,7.5919815417,-0.0817220833,-2.9828560417
1.40363658125856E+018,0.0432841654,0.3511602455,0.0970403064,7.5102594583,-0.0081722083,-2.9093061667
1.40363658126356E+018,0.0516617459,0.3511602455,0.0774926188,7.2650932083,0.0326888333,-2.7622064167
1.40363658126856E+018,0.0523598776,0.3504621138,0.0586430629,6.9790659167,0.04903325,-2.6559677083
1.40363658127356E+018,0.0488692191,0.3399901383,0.0460766923,6.8564827917,0.0408610417,-2.6477955
1.40363658127856E+018,0.0363028484,0.3274237677,0.0307177948,6.6848664167,0.024516625,-2.549729
1.40363658128356E+018,0.0216420827,0.3246312409,0.0237364778,6.5377666667,-0.0326888333,-2.4598347083
1.40363658128856E+018,0.0048869219,0.3162536605,0.0265290046,6.42335575,-0.1144109167,-2.4108014583
1.40363658129356E+018,-0.0083775804,0.3204424507,0.034906585,6.3171170417,-0.1634441667,-2.3127349583
1.40363658129856E+018,-0.0146607657,0.3169517922,0.0446804289,6.202706125,-0.3595771667,-2.1166019583
1.40363658130356E+018,-0.0230383461,0.3092723435,0.0572467995,6.2353949583,-0.53936575,-2.0267076667
1.40363658130856E+018,-0.0223402144,0.3078760801,0.0705113018,6.2926004167,-0.5230213333,-1.9776744167
1.40363658131356E+018,-0.0181514242,0.2981022362,0.0858701992,6.276256,-0.5230213333,-1.887780125
1.40363658131856E+018,-0.0167551608,0.2932153143,0.0984365698,6.32528925,-0.392266,-1.8224024583
1.40363658132356E+018,-0.0153588974,0.2778564169,0.1068141502,6.3089448333,-0.2124774167,-1.7978858333
1.40363658132856E+018,-0.0125663706,0.2604031244,0.1068141502,6.276256,-0.04903325,-1.765197
1.40363658133356E+018,-0.0195476876,0.2499311489,0.1019272283,6.251739375,-0.0081722083,-1.6998193333
1.40363658133856E+018,-0.020943951,0.2296853296,0.0921533845,6.22722275,0.024516625,-1.7079915417
1.40363658134356E+018,-0.0230383461,0.2178170906,0.0809832773,6.1618450833,0.0898942917,-1.71616375
1.40363658134856E+018,-0.0265290046,0.2003637981,0.0656243799,6.055606375,0.1634441667,-1.6998193333
1.40363658135356E+018,-0.0307177948,0.1870992958,0.0460766923,5.9738842917,0.3105439167,-1.691647125
1.40363658135856E+018,-0.0446804289,0.1654572131,0.027925268,5.9166788333,0.4903325,-1.6998193333
1.40363658136356E+018,-0.0593411946,0.1466076572,0.0111701072,5.8186123333,0.5066769167,-1.6834749167
1.40363658136856E+018,-0.074700092,0.1270599695,-0.0034906585,5.8676455833,0.4331270417,-1.691647125
1.40363658137356E+018,-0.0858701992,0.1117010721,-0.0146607657,5.8921622083,0.3350605417,-1.6834749167
1.40363658137856E+018,-0.0914552528,0.0970403064,-0.0321140582,5.88399,0.2043052083,-1.7079915417
1.40363658138356E+018,-0.0928515162,0.0830776724,-0.0397935069,5.93302325,0.1144109167,-1.7815414167
1.40363658138856E+018,-0.0949459113,0.0726056969,-0.0383972435,5.9166788333,0.073549875,-1.838746875
1.40363658139356E+018,-0.095644043,0.0558505361,-0.0314159265,5.8676455833,0.122583125,-1.789713625
1.40363658139856E+018,-0.0963421747,0.0481710874,-0.0272271363,5.7940957083,0.0572054583,-1.7488525833
1.40363658140356E+018,-0.0928515162,0.0293215314,-0.020943951,5.810440125,-0.0653776667,-1.6834749167
1.40363658140856E+018,-0.0872664626,0.0104719755,-0.0111701072,5.8022679167,-0.1144109167,-1.61809725
1.40363658141356E+018,-0.0788888822,-0.0055850536,-0.0062831853,5.83495675,-0.1552719583,-1.5363751667
1.40363658141856E+018,-0.0698131701,-0.0244346095,-0.0048869219,5.9657120833,-0.171616375,-1.446480875
1.40363658142356E+018,-0.0586430629,-0.0432841654,-0.0041887902,5.9902287083,-0.1389275417,-1.3811032083
1.40363658142856E+018,-0.0509636142,-0.0523598776,-0.006981317,5.9984009167,-0.0572054583,-1.3320699583
1.40363658143356E+018,-0.0411897703,-0.0586430629,-0.0202458193,6.055606375,-0.024516625,-1.348414375
1.40363658143856E+018,-0.041887902,-0.0712094335,-0.0370009801,6.0474341667,0.0408610417,-1.446480875
1.40363658144356E+018,-0.046774824,-0.0858701992,-0.0530580093,5.9902287083,0.0572054583,-1.446480875
1.40363658144856E+018,-0.0474729557,-0.0949459113,-0.060737458,5.93302325,0.0572054583,-1.5854084167
1.40363658145356E+018,-0.0488692191,-0.109606677,-0.0705113018,5.9984009167,0.1307553333,-1.71616375
1.40363658145856E+018,-0.053756141,-0.1277581012,-0.0767944871,5.9902287083,0.196133,-1.8060580417
1.40363658146356E+018,-0.0572467995,-0.1403244719,-0.0781907505,6.080123,0.171616375,-1.9531577917
1.40363658146856E+018,-0.0635299848,-0.1528908425,-0.0788888822,6.202706125,0.0898942917,-2.0593965
1.40363658147356E+018,-0.0621337214,-0.1605702912,-0.0788888822,6.3171170417,0.0408610417,-2.0512242917
1.40363658147856E+018,-0.060737458,-0.1682497399,-0.0705113018,6.398839125,-0.024516625,-1.9940188333
1.40363658148356E+018,-0.0600393263,-0.1787217154,-0.0621337214,6.5786277083,-0.122583125,-1.9695022083
1.40363658148856E+018,-0.0530580093,-0.191288086,-0.0439822972,6.6766942083,-0.073549875,-1.9204689583
1.40363658149356E+018,-0.0446804289,-0.2045525883,-0.0251327412,6.7257274583,-0.073549875,-1.7488525833
1.40363658149856E+018,-0.0397935069,-0.2059488517,-0.0020943951,6.8564827917,0.0326888333,-1.6262694583
1.40363658150356E+018,-0.0397935069,-0.2185152223,0.0258308729,6.9218604583,0.1144109167,-1.5036863333
1.40363658150856E+018,-0.0376991118,-0.2213077492,0.0481710874,6.9300326667,0.196133,-1.3320699583
1.40363658151356E+018,-0.0432841654,-0.2227040126,0.0642281165,6.938204875,0.0898942917,-1.2176590417
1.40363658151856E+018,-0.0439822972,-0.224100276,0.0795870139,6.9627215,0,-1.2585200833
1.40363658152356E+018,-0.0432841654,-0.2234021443,0.0879645943,6.9463770833,-0.122583125,-1.2340034583
1.40363658152856E+018,-0.0356047167,-0.2192133541,0.1005309649,6.8728272083,-0.2941995,-1.348414375
1.40363658153356E+018,-0.027925268,-0.2157226955,0.1137954672,6.8483105833,-0.3023717083,-1.593580625
1.40363658153856E+018,-0.0230383461,-0.2164208272,0.1298524963,6.7338996667,-0.2941995,-1.7488525833
1.40363658154356E+018,-0.0244346095,-0.2199114858,0.1514945791,6.71755525,-0.318716125,-1.91229675
1.40363658154856E+018,-0.0237364778,-0.2331759881,0.1591740278,6.987238125,-0.3105439167,-2.1411185833
1.40363658155356E+018,-0.0237364778,-0.2443460953,0.163362818,7.2487487917,-0.171616375,-2.30456275
1.40363658155856E+018,-0.0251327412,-0.245044227,0.1598721595,7.4612262083,0.0326888333,-2.40262925
1.40363658156356E+018,-0.0195476876,-0.2513274123,0.156381501,7.820803375,0.2369940417,-2.476179125
1.40363658156856E+018,-0.0132645023,-0.2548180708,0.1556833693,8.09048625,0.4004382083,-2.525212375
1.40363658157356E+018,-0.0076794487,-0.2576105976,0.1521927108,8.2784470417,0.4086104167,-2.4434902917
1.40363658157856E+018,0,-0.2499311489,0.1466076572,8.4745800417,0.2860272917,-2.4843513333
1.40363658158356E+018,0.0174532925,-0.2457423587,0.1403244719,8.5236132917,0.1389275417,-2.4598347083
1.40363658158856E+018,0.0432841654,-0.2387610417,0.1291543646,8.4255467917,0.0326888333,-2.4516625
1.40363658159356E+018,0.0572467995,-0.2345722515,0.1123992038,8.1967249583,0,-2.3944570417
1.40363658159856E+018,0.0705113018,-0.2247984077,0.0977384381,8.065969625,0,-2.3862848333
1.40363658160356E+018,0.074700092,-0.2268928028,0.0935496479,7.9433865,0.0408610417,-2.378112625
1.40363658160856E+018,0.0830776724,-0.2220058809,0.0907571211,7.771770125,-0.1062387083,-2.353596
1.40363658161356E+018,0.0872664626,-0.2150245638,0.1075122819,7.7472535,-0.2124774167,-2.4434902917
1.40363658161856E+018,0.0893608577,-0.2073451151,0.1291543646,7.7799423333,-0.2043052083,-2.4843513333
1.40363658162356E+018,0.0858701992,-0.1919862177,0.1480039206,7.820803375,-0.1144109167,-2.549729
1.40363658162856E+018,0.0719075652,-0.1801179788,0.1661553448,7.9842475417,0.1062387083,-2.7131731667
1.40363658163356E+018,0.0495673508,-0.1682497399,0.1857030324,8.1313472917,0.392266,-2.770378625
1.40363658163856E+018,0.0244346095,-0.1640609497,0.2017600615,8.213069375,0.6537766667,-2.8357562917
1.40363658164356E+018,-0.0020943951,-0.1668534765,0.2108357736,8.4418912083,0.6864655,-2.8357562917
1.40363658164856E+018,-0.0265290046,-0.1724385301,0.2073451151,8.8341572083,0.6782932917,-2.89296175
1.40363658165356E+018,-0.0411897703,-0.1752310569,0.1850049007,9.1528733333,0.5720545833,-2.8766173333
1.40363658165856E+018,-0.0516617459,-0.1640609497,0.1535889742,9.4062117917,0.4086104167,-2.8602729167
1.40363658166356E+018,-0.0460766923,-0.1556833693,0.1179842574,9.5533115417,0.34323275,-2.9256505833
1.40363658166856E+018,-0.0342084533,-0.1445132621,0.0823795407,9.5287949167,0.4086104167,-2.966511625
1.40363658167356E+018,-0.0216420827,-0.1277581012,0.0425860337,9.3244897083,0.4004382083,-2.9746838333
1.40363658167856E+018,-0.0153588974,-0.1263618378,0.0055850536,9.193734375,0.3268883333,-3.0318892917
1.40363658168356E+018,-0.0034906585,-0.1214749159,-0.0286233997,8.9322237083,0.196133,-3.064578125
1.40363658168856E+018,0.0125663706,-0.1179842574,-0.046774824,8.67888525,-0.1307553333,-3.064578125
1.40363658169356E+018,0.0321140582,-0.1179842574,-0.0565486678,8.507268875,-0.318716125,-3.1463002083
1.40363658169856E+018,0.0551524044,-0.1200786525,-0.0425860337,8.3765135417,-0.367749375,-3.1054391667
1.40363658170356E+018,0.074700092,-0.1089085453,-0.0153588974,8.2294137917,-0.2778550833,-3.0564059167
1.40363658170856E+018,0.0907571211,-0.1005309649,0.0404916386,8.311135875,-0.1389275417,-3.0318892917
1.40363658171356E+018,0.0935496479,-0.0872664626,0.0928515162,8.4418912083,-0.0081722083,-3.0482337083
1.40363658171856E+018,0.0893608577,-0.0760963554,0.1500983157,8.4909244583,0.0817220833,-3.0318892917
1.40363658172356E+018,0.0809832773,-0.060737458,0.191288086,8.6625408333,-0.024516625,-3.064578125
1.40363658172856E+018,0.0760963554,-0.0460766923,0.2157226955,8.7851239583,-0.0898942917,-3.0727503333
1.40363658173356E+018,0.067718775,-0.0390953752,0.2213077492,8.8668460417,-0.1634441667,-3.0809225417
1.40363658173856E+018,0.0530580093,-0.0363028484,0.2010619298,9.07115125,-0.1307553333,-3.162644625
1.40363658174356E+018,0.0397935069,-0.0383972435,0.1759291886,9.3490063333,-0.04903325,-3.3179165833
1.40363658174856E+018,0.0244346095,-0.0376991118,0.1382300768,9.3735229583,0.0326888333,-3.4486719167
1.40363658175356E+018,0.0153588974,-0.0335103216,0.095644043,9.4307284167,-0.1307553333,-3.456844125
1.40363658175856E+018,0.0167551608,-0.0356047167,0.0586430629,9.3980395833,-0.3268883333,-3.57942725
1.40363658176356E+018,0.0251327412,-0.0356047167,0.0397935069,9.340834125,-0.465815875,-3.6366327083
1.40363658176856E+018,0.0516617459,-0.0244346095,0.0328121899,9.1528733333,-0.5720545833,-3.6856659583
1.40363658177356E+018,0.0740019603,-0.0188495559,0.0258308729,9.0139457917,-0.6456044583,-3.8082490833
1.40363658177856E+018,0.0977384381,-0.0195476876,0.027925268,8.8586738333,-0.5557101667,-3.8654545417
1.40363658178356E+018,0.1186823891,-0.0251327412,0.0390953752,8.629852,-0.4494714583,-3.800076875
1.40363658178856E+018,0.1340412866,-0.0321140582,0.0551524044,8.5154410833,-0.4004382083,-3.751043625
1.40363658179356E+018,0.1473057889,-0.0453785606,0.0809832773,8.5644743333,-0.2860272917,-3.652977125
1.40363658179856E+018,0.1542871059,-0.0600393263,0.1158898623,8.6625408333,-0.1879607917,-3.4650163333
1.40363658180356E+018,0.1577777644,-0.0656243799,0.1431169987,8.850501625,-0.1879607917,-3.260711125
1.40363658180856E+018,0.1577777644,-0.0684169067,0.1640609497,9.2019065833,-0.0653776667,-3.1463002083
1.40363658181356E+018,0.1535889742,-0.0635299848,0.1717403984,9.389867375,0.0408610417,-3.0482337083
1.40363658181856E+018,0.1389282085,-0.0509636142,0.1591740278,9.4225562083,0.1634441667,-2.9011339583
1.40363658182356E+018,0.1110029404,-0.0502654825,0.1403244719,9.4552450417,0.1797885833,-2.8357562917
1.40363658182856E+018,0.0844739358,-0.0565486678,0.1193805208,9.389867375,0.24516625,-2.7867230417
1.40363658183356E+018,0.0586430629,-0.060737458,0.0984365698,9.2345954167,0.2124774167,-2.8766173333
1.40363658183856E+018,0.0293215314,-0.0600393263,0.0858701992,9.2509398333,0.1634441667,-3.0972669583
1.40363658184356E+018,0.0006981317,-0.0670206433,0.0795870139,9.2019065833,0.1307553333,-3.260711125
1.40363658184856E+018,-0.0195476876,-0.074700092,0.0781907505,9.16921775,-0.0980665,-3.38329425
1.40363658185356E+018,-0.0286233997,-0.0837758041,0.0823795407,9.1283567083,-0.392266,-3.4159830833
1.40363658185856E+018,-0.0230383461,-0.1040216234,0.0823795407,9.16921775,-0.7518431667,-3.48136075
1.40363658186356E+018,-0.0027925268,-0.1193805208,0.0949459113,9.2100787917,-0.956148375,-3.5385662083
1.40363658186856E+018,0.0237364778,-0.1291543646,0.1207767842,9.3163175,-0.9643205833,-3.6448049167
1.40363658187356E+018,0.0453785606,-0.1438151304,0.1417207353,9.5124505,-0.8825985,-3.67749375
1.40363658187856E+018,0.0733038286,-0.1514945791,0.1661553448,9.5778281667,-0.6701210833,-3.5712550417
1.40363658188356E+018,0.0858701992,-0.1570796327,0.1850049007,9.6268614167,-0.5230213333,-3.505877375
1.40363658188856E+018,0.0935496479,-0.170344135,0.1919862177,9.7167557083,-0.4739880833,-3.4404997083
1.40363658189356E+018,0.0963421747,-0.1850049007,0.1919862177,9.7657889583,-0.2941995,-3.3751220417
1.40363658189856E+018,0.0928515162,-0.1891936909,0.1898918226,9.733100125,-0.14709975,-3.3669498333
1.40363658190356E+018,0.0788888822,-0.1961750079,0.1891936909,9.782133375,-0.0081722083,-3.3914664583
1.40363658190856E+018,0.0558505361,-0.20525072,0.1822123739,9.7167557083,0.2533384583,-3.407810875
1.40363658191356E+018,0.027925268,-0.2143264321,0.1766273203,9.7167557083,0.34323275,-3.48136075
1.40363658191856E+018,-0.0097738438,-0.2157226955,0.163362818,9.6758946667,0.3840937917,-3.530394
1.40363658192356E+018,-0.0488692191,-0.2171189589,0.142418867,9.7657889583,0.3105439167,-3.6938381667
1.40363658192856E+018,-0.0830776724,-0.2247984077,0.123569311,9.7167557083,0.171616375,-3.7346992083
1.40363658193356E+018,-0.1186823891,-0.231081593,0.109606677,9.6758946667,0.024516625,-3.6448049167
1.40363658193856E+018,-0.1291543646,-0.2429498319,0.1012290966,9.7249279167,-0.1879607917,-3.5467384167
1.40363658194356E+018,-0.1333431549,-0.2548180708,0.0998328332,9.7984777917,-0.269682875,-3.4650163333
1.40363658194856E+018,-0.1291543646,-0.2701769682,0.1068141502,9.880199875,-0.4331270417,-3.3506054167
1.40363658195356E+018,-0.1186823891,-0.2771582852,0.1242674427,10.0926772917,-0.588399,-3.2688833333
1.40363658195856E+018,-0.0963421747,-0.2813470754,0.1445132621,10.1907437917,-0.5720545833,-3.2198500833
1.40363658196356E+018,-0.074700092,-0.279950812,0.1675516082,10.1825715833,-0.5475379583,-3.1789890417
1.40363658196856E+018,-0.0551524044,-0.279950812,0.1822123739,10.3133269167,-0.392266,-3.2688833333
1.40363658197356E+018,-0.0432841654,-0.2792526803,0.1933824811,10.223432625,-0.1552719583,-3.334261
1.40363658197856E+018,-0.041887902,-0.279950812,0.1954768762,10.0926772917,0.0081722083,-3.4404997083
1.40363658198356E+018,-0.0488692191,-0.2883283924,0.1850049007,10.05181625,0.1062387083,-3.57942725
1.40363658198856E+018,-0.0670206433,-0.3015928947,0.1626646863,10.0109552083,0.1307553333,-3.7673880417
1.40363658199356E+018,-0.0837758041,-0.3099704752,0.1368338134,9.978266375,0.122583125,-3.8899711667
1.40363658199856E+018,-0.1033234917,-0.312763002,0.1123992038,9.9619219583,0.0408610417,-3.9880376667
1.40363658200356E+018,-0.1193805208,-0.319744319,0.0809832773,10.0191274167,-0.04903325,-4.1759984583
1.40363658200856E+018,-0.1312487597,-0.3218387141,0.0572467995,10.0191274167,-0.1389275417,-4.2332039167
1.40363658201356E+018,-0.13543755,-0.3190461873,0.034906585,10.0599884583,-0.3105439167,-4.314926
1.40363658201856E+018,-0.1361356817,-0.3232349775,0.020943951,10.1417105417,-0.4576436667,-4.3721314583
1.40363658202356E+018,-0.1256637061,-0.3218387141,0.0174532925,10.1907437917,-0.4739880833,-4.3476148333
1.40363658202856E+018,-0.1103048087,-0.3218387141,0.0223402144,10.2642936667,-0.4331270417,-4.2822371667
1.40363658203356E+018,-0.0977384381,-0.326725636,0.0439822972,10.3787045833,-0.4494714583,-4.1759984583
1.40363658203856E+018,-0.0795870139,-0.3323106896,0.0649262482,10.6075264167,-0.4086104167,-4.143309625
1.40363658204356E+018,-0.0614355897,-0.3309144262,0.0823795407,10.7219373333,-0.4086104167,-4.094276375
1.40363658204856E+018,-0.0383972435,-0.3295181628,0.0991347015,10.9671035833,-0.416782625,-4.118793
1.40363658205356E+018,-0.0195476876,-0.3218387141,0.1061160185,11.13054775,-0.3595771667,-4.1514818333
1.40363658205856E+018,-0.0062831853,-0.3190461873,0.1075122819,11.1387199583,-0.24516625,-4.1269652083
1.40363658206356E+018,0.0062831853,-0.312763002,0.1040216234,11.0815145,-0.1307553333,-4.2168595
1.40363658206856E+018,0.0076794487,-0.319744319,0.0879645943,11.0651700833,-0.0653776667,-4.3312704167
1.40363658207356E+018,0.0118682389,-0.319744319,0.0760963554,10.93441475,0.0408610417,-4.3966480833
1.40363658207856E+018,0.0055850536,-0.3204424507,0.0649262482,10.8853815,-0.073549875,-4.535575625
1.40363658208356E+018,0.0006981317,-0.3246312409,0.0530580093,10.8853815,-0.196133,-4.6499865417
1.40363658208856E+018,0.0013962634,-0.3295181628,0.0370009801,10.811831625,-0.1879607917,-4.75622525
1.40363658209356E+018,0.0020943951,-0.326725636,0.0286233997,10.8036594167,-0.2778550833,-4.780741875
1.40363658209856E+018,0.006981317,-0.3274237677,0.0167551608,10.9262425417,-0.4004382083,-4.8869805833
1.40363658210356E+018,0.013962634,-0.3204424507,0.0111701072,11.0243090417,-0.44129925,-4.95235825
1.40363658210856E+018,0.0223402144,-0.3141592654,0.0090757121,11.1223755417,-0.4985047083,-4.927841625
1.40363658211356E+018,0.0293215314,-0.3029891581,0.0153588974,11.2776475,-0.5965712083,-5.0095637083
1.40363658211856E+018,0.0383972435,-0.3015928947,0.0272271363,11.3838862083,-0.5311935417,-4.9932192917
1.40363658212356E+018,0.046774824,-0.2974041045,0.0474729557,11.4165750417,-0.5475379583,-4.95235825
1.40363658212856E+018,0.060737458,-0.2848377339,0.0733038286,11.5391581667,-0.5066769167,-4.9114972083
1.40363658213356E+018,0.0698131701,-0.2806489437,0.1047197551,11.6699135,-0.3840937917,-4.85429175
1.40363658213856E+018,0.0726056969,-0.2743657584,0.1319468915,11.7761522083,-0.318716125,-4.8379473333
1.40363658214356E+018,0.081681409,-0.259006861,0.1410226036,11.8088410417,-0.269682875,-4.8706361667
1.40363658214856E+018,0.0879645943,-0.2436479636,0.1459095255,11.792496625,-0.14709975,-4.95235825
1.40363658215356E+018,0.0851720675,-0.2345722515,0.1410226036,11.7598077917,-0.0163444167,-4.927841625
1.40363658215856E+018,0.0851720675,-0.2268928028,0.123569311,11.6699135,0.0572054583,-4.9441860417
1.40363658216356E+018,0.0753982237,-0.2296853296,0.1019272283,11.645396875,0.04903325,-4.95235825
1.40363658216856E+018,0.0719075652,-0.2331759881,0.081681409,11.6045358333,0.0572054583,-4.95235825
1.40363658217356E+018,0.0656243799,-0.2352703832,0.0628318531,11.7026023333,0.0081722083,-4.95235825
1.40363658217856E+018,0.0621337214,-0.2373647783,0.0425860337,11.8742187083,-0.0408610417,-5.0422525417
1.40363658218356E+018,0.0635299848,-0.2303834613,0.0383972435,12.0213184583,-0.0572054583,-5.0667691667
1.40363658218856E+018,0.060737458,-0.2192133541,0.0314159265,12.1193849583,-0.122583125,-5.0667691667
1.40363658219356E+018,0.0642281165,-0.2066469834,0.0383972435,12.1520737917,-0.1552719583,-4.9932192917
1.40363658219856E+018,0.0698131701,-0.1919862177,0.046774824,12.1765904167,-0.1144109167,-5.0095637083
1.40363658220356E+018,0.0663225116,-0.1857030324,0.0565486678,12.1439015833,0.0163444167,-5.0422525417
1.40363658220856E+018,0.0642281165,-0.1724385301,0.0649262482,12.1030405417,-0.0163444167,-4.9687026667
1.40363658221356E+018,0.0558505361,-0.1661553448,0.0670206433,12.1765904167,-0.0081722083,-5.0177359167
1.40363658221856E+018,0.0495673508,-0.1605702912,0.0726056969,12.1684182083,0.0326888333,-5.0340803333
1.40363658222356E+018,0.0474729557,-0.1473057889,0.0781907505,12.184762625,-0.073549875,-5.0013915
1.40363658222856E+018,0.0411897703,-0.1403244719,0.0781907505,12.2583125,-0.0408610417,-5.0177359167
1.40363658223356E+018,0.0370009801,-0.1298524963,0.0733038286,12.30734575,0.073549875,-5.0422525417
1.40363658223856E+018,0.0328121899,-0.1228711793,0.0684169067,12.3155179583,-0.0081722083,-5.05042475
1.40363658224356E+018,0.0272271363,-0.1123992038,0.0628318531,12.4544455,-0.0408610417,-5.14849125
1.40363658224856E+018,0.0202458193,-0.1068141502,0.0572467995,12.4544455,-0.0653776667,-5.1893522917
1.40363658225356E+018,0.0244346095,-0.0949459113,0.0621337214,12.40541225,-0.1634441667,-5.1811800833
1.40363658225856E+018,0.027925268,-0.0844739358,0.0635299848,12.4626177083,-0.2043052083,-5.222041125
1.40363658226356E+018,0.0376991118,-0.0767944871,0.0642281165,12.5606842083,-0.2941995,-5.3773130833
1.40363658226856E+018,0.0481710874,-0.0684169067,0.0705113018,12.4953065417,-0.3268883333,-5.4345185417
1.40363658227356E+018,0.0600393263,-0.0502654825,0.0740019603,12.527995375,-0.3840937917,-5.5080684167
1.40363658227856E+018,0.0621337214,-0.0404916386,0.074700092,12.4626177083,-0.3514049583,-5.5734460833
1.40363658228356E+018,0.0614355897,-0.034906585,0.0698131701,12.3155179583,-0.2941995,-5.54075725
1.40363658228856E+018,0.0621337214,-0.0244346095,0.0691150384,12.2664847083,-0.269682875,-5.5979627083
1.40363658229356E+018,0.0593411946,-0.0153588974,0.0733038286,12.20927925,-0.2860272917,-5.5979627083
1.40363658229856E+018,0.0551524044,-0.0062831853,0.0795870139,12.1929348333,-0.2369940417,-5.663340375
1.40363658230356E+018,0.0523598776,0.0034906585,0.0872664626,12.1193849583,-0.269682875,-5.6061349167
1.40363658230856E+018,0.053756141,0.0300196631,0.0963421747,12.0621795,-0.2941995,-5.5571016667
1.40363658231356E+018,0.046774824,0.0453785606,0.1110029404,11.9968018333,-0.220649625,-5.5489294583
1.40363658231856E+018,0.046774824,0.0656243799,0.1179842574,11.8660465,-0.220649625,-5.4590351667
1.40363658232356E+018,0.041887902,0.0802851456,0.1221730476,11.8088410417,-0.2615106667,-5.4345185417
1.40363658232856E+018,0.0370009801,0.0935496479,0.1193805208,11.7516355833,-0.2369940417,-5.4263463333
1.40363658233356E+018,0.0404916386,0.1019272283,0.1144935989,11.6617412917,-0.318716125,-5.3773130833
1.40363658233856E+018,0.0376991118,0.1249655744,0.1047197551,11.6535690833,-0.3840937917,-5.4590351667
1.40363658234356E+018,0.0376991118,0.1340412866,0.10262536,11.5636747917,-0.3350605417,-5.4100019167
1.40363658234856E+018,0.0397935069,0.1528908425,0.0998328332,11.4165750417,-0.3023717083,-5.320107625
1.40363658235356E+018,0.0390953752,0.1724385301,0.1012290966,11.3593695833,-0.2941995,-5.2792465833
1.40363658235856E+018,0.0390953752,0.1850049007,0.0998328332,11.204097625,-0.3105439167,-5.222041125
1.40363658236356E+018,0.0439822972,0.2059488517,0.0998328332,11.1142033333,-0.269682875,-5.14849125
1.40363658236856E+018,0.0397935069,0.2275909345,0.0942477796,10.9425869583,-0.2369940417,-5.0831135833
1.40363658237356E+018,0.0390953752,0.245044227,0.0893608577,10.8445204583,-0.1552719583,-5.0831135833
1.40363658237856E+018,0.0363028484,0.2555162025,0.0928515162,10.6892485,-0.0163444167,-5.0177359167
1.40363658238356E+018,0.0286233997,0.272969495,0.0879645943,10.5503209583,0.024516625,-4.9441860417
1.40363658238856E+018,0.0181514242,0.2855358656,0.0865683309,10.5258043333,0.0980665,-4.903325
1.40363658239356E+018,0.0083775804,0.293913446,0.0809832773,10.4931155,0.171616375,-4.8379473333
1.40363658239856E+018,-0.0013962634,0.3043854215,0.0684169067,10.4113934167,0.122583125,-4.7970862917
1.40363658240356E+018,-0.0097738438,0.3134611337,0.0600393263,10.419565625,0.073549875,-4.7480530417
1.40363658240856E+018,-0.0160570291,0.3190461873,0.053756141,10.3868767917,0.0572054583,-4.6418143333
1.40363658241356E+018,-0.0195476876,0.3274237677,0.0558505361,10.321499125,0.0326888333,-4.5274034167
1.40363658241856E+018,-0.0202458193,0.3302162945,0.0642281165,10.2561214583,-0.1144109167,-4.4211647083
1.40363658242356E+018,-0.0118682389,0.3351032164,0.0788888822,10.272465875,-0.1797885833,-4.3557870417
1.40363658242856E+018,-0.0027925268,0.3371976115,0.0998328332,10.1090217083,-0.1879607917,-4.2086872917
1.40363658243356E+018,0.0041887902,0.3358013481,0.1193805208,10.05181625,-0.1879607917,-4.1024485833
1.40363658243856E+018,0.0090757121,0.3323106896,0.1270599695,10.0599884583,-0.14709975,-4.1024485833
1.40363658244356E+018,0.0097738438,0.3288200311,0.1270599695,10.0599884583,-0.073549875,-4.0615875417
1.40363658244856E+018,0.0048869219,0.3351032164,0.1130973355,10.1090217083,-0.0408610417,-4.06975975
1.40363658245356E+018,0.0006981317,0.3358013481,0.10262536,10.1580549583,0.0572054583,-4.1351374167
1.40363658245856E+018,-0.0111701072,0.3330088213,0.0851720675,10.1008495,0.1552719583,-4.1351374167
1.40363658246356E+018,-0.0167551608,0.3260275043,0.0635299848,10.002783,0.3023717083,-4.1351374167
1.40363658246856E+018,-0.0251327412,0.3183480556,0.0411897703,9.9619219583,0.2124774167,-4.16782625
1.40363658247356E+018,-0.0404916386,0.3085742118,0.0237364778,9.978266375,0.2288218333,-4.2086872917
1.40363658247856E+018,-0.0530580093,0.2994984996,0.0083775804,9.929233125,0.2615106667,-4.1759984583
1.40363658248356E+018,-0.0593411946,0.2890265241,-0.0041887902,9.8965442917,0.171616375,-4.143309625
1.40363658248856E+018,-0.0649262482,0.2813470754,-0.0188495559,9.8720276667,0.220649625,-4.1106207917
1.40363658249356E+018,-0.0691150384,0.272969495,-0.0202458193,9.831166625,0.1144109167,-4.0861041667
1.40363658249856E+018,-0.074700092,0.265988178,-0.0237364778,9.8229944167,-0.0572054583,-4.118793
1.40363658250356E+018,-0.0781907505,0.2611012561,-0.0202458193,9.8229944167,-0.0408610417,-4.1106207917
1.40363658250856E+018,-0.0802851456,0.2583087293,-0.0076794487,9.7167557083,-0.0980665,-4.045243125
1.40363658251356E+018,-0.0844739358,0.2569124659,0.0125663706,9.5696559583,-0.1634441667,-3.9880376667
1.40363658251856E+018,-0.0809832773,0.2457423587,0.0342084533,9.5451393333,-0.3023717083,-3.947176625
1.40363658252356E+018,-0.0719075652,0.2408554368,0.0614355897,9.4961060833,-0.2860272917,-3.9308322083
1.40363658252856E+018,-0.0684169067,0.2359685149,0.0788888822,9.340834125,-0.2124774167,-3.9308322083
1.40363658253356E+018,-0.0635299848,0.231081593,0.0900589894,9.2754564583,-0.1144109167,-3.9063155833
1.40363658253856E+018,-0.0621337214,0.2275909345,0.0928515162,9.2100787917,0.0653776667,-3.9308322083
1.40363658254356E+018,-0.0719075652,0.2227040126,0.0872664626,9.1201845,0.1389275417,-3.9144877917
1.40363658254856E+018,-0.0802851456,0.2178170906,0.074700092,9.0384624167,0.1389275417,-3.8817989583
1.40363658255356E+018,-0.0844739358,0.2080432468,0.0670206433,9.0057735833,0.2043052083,-3.8164212917
1.40363658255856E+018,-0.0879645943,0.198269403,0.0572467995,8.97308475,0.2533384583,-3.800076875
1.40363658256356E+018,-0.0865683309,0.1870992958,0.0474729557,9.07115125,0.24516625,-3.8082490833
1.40363658256856E+018,-0.0949459113,0.1745329252,0.0321140582,9.218251,0.3350605417,-3.8245935
1.40363658257356E+018,-0.1061160185,0.1640609497,0.0041887902,9.3490063333,0.392266,-3.8082490833
1.40363658257856E+018,-0.1179842574,0.1556833693,-0.0230383461,9.4715894583,0.4086104167,-3.7919046667
1.40363658258356E+018,-0.1277581012,0.1466076572,-0.0376991118,9.5533115417,0.416782625,-3.7837324583
1.40363658258856E+018,-0.1396263402,0.1438151304,-0.046774824,9.487933875,0.3023717083,-3.7428714167
1.40363658259356E+018,-0.1375319451,0.13543755,-0.0439822972,9.46341725,0.0898942917,-3.7183547917
1.40363658259856E+018,-0.1368338134,0.1326450232,-0.027925268,9.4715894583,-0.0817220833,-3.77556025
1.40363658260356E+018,-0.1326450232,0.1270599695,-0.0020943951,9.3816951667,-0.1552719583,-3.7919046667
1.40363658260856E+018,-0.1193805208,0.130550628,0.0342084533,9.26728425,-0.1797885833,-3.7919046667
1.40363658261356E+018,-0.1172861257,0.1221730476,0.0565486678,9.1855621667,-0.14709975,-3.7919046667
1.40363658261856E+018,-0.1130973355,0.1214749159,0.0837758041,9.0548068333,0.0163444167,-3.8082490833
1.40363658262356E+018,-0.1137954672,0.1200786525,0.1005309649,8.997601375,0.0408610417,-3.8409379167
1.40363658262856E+018,-0.1214749159,0.1186823891,0.095644043,8.8668460417,0.073549875,-3.8409379167
1.40363658263356E+018,-0.1284562329,0.1172861257,0.0823795407,8.8096405833,0.122583125,-3.8082490833
1.40363658263856E+018,-0.1298524963,0.1151917306,0.0753982237,8.605335375,0.122583125,-3.751043625
1.40363658264356E+018,-0.1249655744,0.1158898623,0.0628318531,8.6135075833,0.073549875,-3.77556025
1.40363658264856E+018,-0.1186823891,0.1172861257,0.0586430629,8.6135075833,0.04903325,-3.7592158333
1.40363658265356E+018,-0.1054178868,0.116587994,0.0628318531,8.5889909583,0.0817220833,-3.6938381667
1.40363658265856E+018,-0.0879645943,0.1228711793,0.0698131701,8.5644743333,0,-3.6284605
1.40363658266356E+018,-0.0705113018,0.1200786525,0.0809832773,8.5971631667,0.0653776667,-3.5385662083
1.40363658266856E+018,-0.0579449312,0.1179842574,0.0893608577,8.654368625,0.1389275417,-3.4731885417
1.40363658267356E+018,-0.0495673508,0.1186823891,0.0970403064,8.7279185,0.14709975,-3.407810875
1.40363658267856E+018,-0.0453785606,0.1110029404,0.095644043,8.8668460417,0.2124774167,-3.3424332083
1.40363658268356E+018,-0.0411897703,0.1117010721,0.0984365698,9.1038400833,0.2860272917,-3.2443667083
1.40363658268856E+018,-0.0432841654,0.1130973355,0.1019272283,9.218251,0.2860272917,-3.1789890417
1.40363658269356E+018,-0.0453785606,0.1151917306,0.10262536,9.4307284167,0.24516625,-3.1217835833
1.40363658269856E+018,-0.0509636142,0.1172861257,0.1103048087,9.5696559583,0.2533384583,-3.0809225417
1.40363658270356E+018,-0.0516617459,0.1207767842,0.1207767842,9.635033625,0.2778550833,-3.0318892917
1.40363658270856E+018,-0.0579449312,0.1228711793,0.1312487597,9.6677224583,0.2778550833,-3.064578125
1.40363658271356E+018,-0.0663225116,0.1298524963,0.1473057889,9.7249279167,0.3105439167,-3.113611375
1.40363658271856E+018,-0.0740019603,0.1382300768,0.1535889742,9.610517,0.2778550833,-3.1708168333
1.40363658272356E+018,-0.081681409,0.1487020523,0.1521927108,9.5451393333,0.2778550833,-3.3015721667
1.40363658272856E+018,-0.0809832773,0.1535889742,0.1577777644,9.3490063333,0.2615106667,-3.4159830833
1.40363658273356E+018,-0.0879645943,0.1626646863,0.1626646863,9.0629790417,0.196133,-3.48136075
1.40363658273856E+018,-0.0900589894,0.1682497399,0.1619665546,8.8178127917,0.122583125,-3.5140495833
1.40363658274356E+018,-0.0935496479,0.1682497399,0.1584758961,8.6380242083,0.0898942917,-3.530394
1.40363658274856E+018,-0.0949459113,0.1682497399,0.1521927108,8.4418912083,0.1307553333,-3.4650163333
1.40363658275356E+018,-0.0935496479,0.1682497399,0.1549852376,8.360169125,0.0980665,-3.4241552917
1.40363658275856E+018,-0.0928515162,0.1724385301,0.1647590814,8.3683413333,0.196133,-3.3669498333
1.40363658276356E+018,-0.0963421747,0.1717403984,0.1780235837,8.4173745833,0.269682875,-3.3015721667
1.40363658276856E+018,-0.10262536,0.177325452,0.184306769,8.5481299167,0.196133,-3.2280222917
1.40363658277356E+018,-0.1103048087,0.1933824811,0.1891936909,8.801468375,0.14709975,-3.18716125
1.40363658277856E+018,-0.1151917306,0.2045525883,0.191288086,8.9894291667,0.073549875,-3.211677875
1.40363658278356E+018,-0.1151917306,0.2199114858,0.1933824811,9.1528733333,0.073549875,-3.2280222917
1.40363658278856E+018,-0.1193805208,0.2303834613,0.1884955592,9.3244897083,0.2288218333,-3.2280222917
1.40363658279356E+018,-0.1263618378,0.2373647783,0.1870992958,9.4797616667,0.3514049583,-3.309744375
1.40363658279856E+018,-0.1438151304,0.2352703832,0.1815142422,9.4715894583,0.416782625,-3.3015721667
1.40363658280356E+018,-0.1640609497,0.2324778564,0.1780235837,9.586000375,0.367749375,-3.309744375
1.40363658280856E+018,-0.1822123739,0.2359685149,0.1759291886,9.733100125,0.2941995,-3.4159830833
1.40363658281356E+018,-0.1891936909,0.2422517002,0.1731366618,9.7412723333,0.2369940417,-3.4486719167
1.40363658281856E+018,-0.1968731396,0.2541199391,0.1661553448,9.6758946667,0.0326888333,-3.4323275
1.40363658282356E+018,-0.1989675347,0.2638937829,0.1640609497,9.5778281667,0.0163444167,-3.48136075
1.40363658282856E+018,-0.1989675347,0.2743657584,0.1654572131,9.26728425,-0.0081722083,-3.48136075
1.40363658283356E+018,-0.2024581932,0.2904227875,0.1696460033,8.9240515,-0.0817220833,-3.4486719167
1.40363658283856E+018,-0.1975712713,0.2974041045,0.1808161105,8.6461964167,-0.1879607917,-3.5467384167
1.40363658284356E+018,-0.1850049007,0.3022910264,0.1919862177,8.3356525,-0.2941995,-3.6121160833
1.40363658284856E+018,-0.1731366618,0.3078760801,0.198269403,8.0332807917,-0.3350605417,-3.603943875
1.40363658285356E+018,-0.1591740278,0.3169517922,0.2003637981,7.8780088333,-0.3268883333,-3.554910625
1.40363658285856E+018,-0.1549852376,0.3176499239,0.1947787445,7.8126311667,-0.220649625,-3.5222217917
1.40363658286356E+018,-0.1528908425,0.3225368458,0.1864011641,7.7554257083,-0.1797885833,-3.4404997083
1.40363658286856E+018,-0.149400184,0.3295181628,0.1815142422,7.7635979167,-0.2860272917,-3.3669498333
1.40363658287356E+018,-0.1487020523,0.333706953,0.1808161105,7.8616644167,-0.3350605417,-3.2770555417
1.40363658287856E+018,-0.1417207353,0.3399901383,0.1864011641,7.918869875,-0.367749375,-3.1953334583
1.40363658288356E+018,-0.1298524963,0.3497639821,0.1933824811,7.9270420833,-0.392266,-3.0727503333
1.40363658288856E+018,-0.1158898623,0.3497639821,0.20525072,8.0577974167,-0.2533384583,-3.0318892917
1.40363658289356E+018,-0.1089085453,0.3574434308,0.2136283004,8.0823140417,-0.0572054583,-2.9992004583
1.40363658289856E+018,-0.1117010721,0.3665191429,0.2094395102,8.2212415833,0,-2.9746838333
1.40363658290356E+018,-0.1158898623,0.3672172746,0.1940806128,8.3356525,0.0081722083,-2.99102825
1.40363658290856E+018,-0.1186823891,0.368613538,0.1619665546,8.3193080833,0.0408610417,-2.9501672083
1.40363658291356E+018,-0.1144935989,0.3672172746,0.1298524963,8.164036125,0.024516625,-2.8847895417
1.40363658291856E+018,-0.109606677,0.3637266161,0.1047197551,8.09048625,-0.0653776667,-2.8357562917
1.40363658292356E+018,-0.1005309649,0.3588396942,0.0865683309,7.99241975,-0.1552719583,-2.9338227917
1.40363658292856E+018,-0.088662726,0.3581415625,0.0788888822,7.869836625,-0.3105439167,-2.941995
1.40363658293356E+018,-0.0740019603,0.368613538,0.0809832773,7.7309090833,-0.44129925,-2.966511625
1.40363658293856E+018,-0.0614355897,0.3665191429,0.0942477796,7.4693984167,-0.4249548333,-2.917478375
1.40363658294356E+018,-0.0495673508,0.3644247478,0.1012290966,7.2405765833,-0.4249548333,-2.8439285
1.40363658294856E+018,-0.0432841654,0.3707079331,0.10262536,7.060788,-0.367749375,-2.819411875
1.40363658295356E+018,-0.0439822972,0.3665191429,0.1040216234,6.91368825,-0.3514049583,-2.7295175833
1.40363658295856E+018,-0.0523598776,0.3658210112,0.1068141502,6.8237939583,-0.3268883333,-2.6804843333
1.40363658296356E+018,-0.0628318531,0.3707079331,0.1137954672,6.668522,-0.392266,-2.5579012083
1.40363658296856E+018,-0.0705113018,0.3728023282,0.1207767842,6.6766942083,-0.4249548333,-2.5170401667
1.40363658297356E+018,-0.0719075652,0.3728023282,0.130550628,6.6276609583,-0.34323275,-2.4680069167
1.40363658297856E+018,-0.0767944871,0.3762929867,0.1347394183,6.6031443333,-0.24516625,-2.3944570417
1.40363658298356E+018,-0.0774926188,0.3748967233,0.1277581012,6.6848664167,-0.1552719583,-2.4353180833
1.40363658298856E+018,-0.0844739358,0.3714060648,0.1137954672,6.6848664167,-0.0817220833,-2.3372515833
1.40363658299356E+018,-0.0830776724,0.3588396942,0.0984365698,6.6031443333,-0.1389275417,-2.1738074167
1.40363658299856E+018,-0.0767944871,0.3427826651,0.0795870139,6.6603497917,-0.1797885833,-2.2391850833
1.40363658300356E+018,-0.067718775,0.326725636,0.0628318531,6.6848664167,-0.1389275417,-2.2391850833
1.40363658300856E+018,-0.0600393263,0.319744319,0.0523598776,6.6848664167,-0.1552719583,-2.2146684583
1.40363658301356E+018,-0.0509636142,0.3141592654,0.0383972435,6.594972125,-0.1552719583,-2.1983240417
1.40363658301856E+018,-0.0390953752,0.2960078411,0.0237364778,6.5132500417,-0.1634441667,-2.1247741667
1.40363658302356E+018,-0.0230383461,0.2778564169,0.0153588974,6.3171170417,-0.1552719583,-1.9776744167
1.40363658302856E+018,-0.0125663706,0.2583087293,0.0104719755,6.22722275,-0.196133,-1.8060580417
1.40363658303356E+018,0,0.2359685149,0.0125663706,6.22722275,-0.2043052083,-1.7733692083
1.40363658303856E+018,0.0118682389,0.2185152223,0.0153588974,6.276256,-0.2369940417,-1.7570247917
1.40363658304356E+018,0.0216420827,0.2101376419,0.0300196631,6.3334614583,-0.3023717083,-1.6998193333
1.40363658304856E+018,0.0237364778,0.2073451151,0.0446804289,6.545938875,-0.3350605417,-1.789713625
1.40363658305356E+018,0.0258308729,0.2073451151,0.0579449312,6.5622832917,-0.2941995,-1.8224024583
1.40363658305856E+018,0.0272271363,0.198269403,0.0684169067,6.4805612083,-0.2941995,-1.8060580417
1.40363658306356E+018,0.020943951,0.1905899543,0.0788888822,6.5132500417,-0.24516625,-1.7570247917
1.40363658306856E+018,0.0153588974,0.1752310569,0.081681409,6.4560445833,-0.14709975,-1.8060580417
1.40363658307356E+018,0.006981317,0.1521927108,0.0788888822,6.4151835417,-0.0081722083,-1.81423025
1.40363658307856E+018,-0.006981317,0.1368338134,0.0781907505,6.4070113333,0.04903325,-1.8224024583
1.40363658308356E+018,-0.0216420827,0.1207767842,0.0698131701,6.4642167917,0.2288218333,-1.838746875
1.40363658308856E+018,-0.0397935069,0.1082104136,0.0558505361,6.4151835417,0.34323275,-1.7733692083
1.40363658309356E+018,-0.0635299848,0.0970403064,0.0321140582,6.2926004167,0.3023717083,-1.6753027083
1.40363658309856E+018,-0.0802851456,0.0893608577,0.0104719755,6.22722275,0.1879607917,-1.6099250417
1.40363658310356E+018,-0.0851720675,0.0760963554,-0.006981317,6.1209840417,0.04903325,-1.5608917917
1.40363658310856E+018,-0.0851720675,0.0663225116,-0.0251327412,6.006573125,-0.024516625,-1.52003075
1.40363658311356E+018,-0.0837758041,0.060737458,-0.0356047167,5.957539875,-0.1144109167,-1.593580625
1.40363658311856E+018,-0.0844739358,0.0523598776,-0.0397935069,5.8267845417,-0.1389275417,-1.6344416667
1.40363658312356E+018,-0.081681409,0.0502654825,-0.0335103216,5.663340375,-0.1634441667,-1.691647125
1.40363658312856E+018,-0.0767944871,0.0390953752,-0.0202458193,5.6469959583,-0.269682875,-1.765197
1.40363658313356E+018,-0.0726056969,0.0335103216,-0.0104719755,5.6224793333,-0.2533384583,-1.789713625
1.40363658313856E+018,-0.0712094335,0.0237364778,-0.0041887902,5.5979627083,-0.2043052083,-1.8060580417
1.40363658314356E+018,-0.0788888822,0.020943951,0.0006981317,5.6960292083,-0.220649625,-1.8305746667
1.40363658314856E+018,-0.0830776724,0.0146607657,0.0020943951,5.9166788333,-0.1307553333,-1.8714357083
1.40363658315356E+018,-0.0865683309,0.006981317,0.0104719755,6.006573125,-0.0653776667,-1.8305746667
1.40363658315856E+018,-0.0935496479,0,0.0055850536,6.104639625,-0.0980665,-1.7815414167
1.40363658316356E+018,-0.1005309649,-0.006981317,0.0055850536,6.32528925,-0.0898942917,-1.7488525833
1.40363658316856E+018,-0.0991347015,-0.0188495559,0.0027925268,6.5132500417,-0.0817220833,-1.6344416667
1.40363658317356E+018,-0.0928515162,-0.0195476876,-0.0076794487,6.7012108333,-0.2043052083,-1.5608917917
1.40363658317856E+018,-0.0788888822,-0.027925268,-0.0125663706,6.7992773333,-0.3759215833,-1.5363751667
1.40363658318356E+018,-0.0579449312,-0.027925268,-0.0160570291,6.7665885,-0.4739880833,-1.5608917917
1.40363658318856E+018,-0.0293215314,-0.0300196631,-0.0146607657,6.6848664167,-0.514849125,-1.5527195833
1.40363658319356E+018,-0.0020943951,-0.0230383461,-0.0041887902,6.6766942083,-0.5230213333,-1.6507860833
1.40363658319856E+018,0.020943951,-0.0251327412,0.0013962634,6.5622832917,-0.4821602917,-1.6998193333
1.40363658320356E+018,0.041887902,-0.034906585,0.006981317,6.3661502917,-0.4903325,-1.7079915417
1.40363658320856E+018,0.0628318531,-0.0356047167,0.0125663706,6.3171170417,-0.4985047083,-1.81423025
1.40363658321356E+018,0.0781907505,-0.0446804289,0.020943951,6.3171170417,-0.4086104167,-1.8714357083
1.40363658321856E+018,0.0879645943,-0.0509636142,0.0237364778,6.2926004167,-0.2288218333,-1.9041245417
1.40363658322356E+018,0.0844739358,-0.0502654825,0.0376991118,6.3661502917,-0.04903325,-1.9776744167
1.40363658322856E+018,0.0760963554,-0.0523598776,0.0488692191,6.5704555,0.2615106667,-2.0185354583
1.40363658323356E+018,0.0593411946,-0.053756141,0.0544542727,6.81562175,0.4086104167,-2.01036325
1.40363658323856E+018,0.0307177948,-0.0481710874,0.0600393263,6.987238125,0.4739880833,-1.9940188333
1.40363658324356E+018,0.0083775804,-0.053756141,0.060737458,7.2487487917,0.4821602917,-1.936813375
1.40363658324856E+018,-0.0090757121,-0.0593411946,0.0600393263,7.4693984167,0.4331270417,-1.8632635
1.40363658325356E+018,-0.0237364778,-0.0663225116,0.0502654825,7.6818758333,0.3350605417,-1.8060580417
1.40363658325856E+018,-0.0397935069,-0.0600393263,0.041887902,7.9270420833,0.1797885833,-1.8959523333
1.40363658326356E+018,-0.0383972435,-0.0565486678,0.034906585,8.0251085833,0.073549875,-1.9204689583
1.40363658326856E+018,-0.0356047167,-0.0530580093,0.0335103216,7.9842475417,-0.073549875,-1.9449855833
1.40363658327356E+018,-0.0251327412,-0.0488692191,0.0300196631,7.9025254583,-0.220649625,-1.9531577917
1.40363658327856E+018,-0.0097738438,-0.0474729557,0.0342084533,7.7472535,-0.269682875,-1.9776744167
1.40363658328356E+018,0.0076794487,-0.053756141,0.0453785606,7.428537375,-0.2615106667,-1.96133
1.40363658328856E+018,0.0335103216,-0.0579449312,0.0719075652,7.3141264583,-0.269682875,-1.9449855833
1.40363658329356E+018,0.0691150384,-0.0670206433,0.0984365698,7.2732654167,-0.1307553333,-1.96133
1.40363658329856E+018,0.0879645943,-0.0726056969,0.1249655744,7.232404375,0.1879607917,-1.96133
1.40363658330356E+018,0.0921533845,-0.0795870139,0.1389282085,7.2405765833,0.4331270417,-1.9531577917
1.40363658330856E+018,0.0942477796,-0.0781907505,0.1396263402,7.379504125,0.5965712083,-2.0267076667
1.40363658331356E+018,0.0837758041,-0.0760963554,0.1326450232,7.477570625,0.6537766667,-2.1002575417
1.40363658331856E+018,0.074700092,-0.0726056969,0.1186823891,7.5347760833,0.588399,-2.181979625
1.40363658332356E+018,0.0698131701,-0.0726056969,0.0977384381,7.6328425833,0.5802267917,-2.3699404167
1.40363658332856E+018,0.0551524044,-0.0712094335,0.0760963554,7.649187,0.5965712083,-2.525212375
1.40363658333356E+018,0.0411897703,-0.0670206433,0.0530580093,7.6900480417,0.5230213333,-2.7131731667
1.40363658333856E+018,0.0237364778,-0.0656243799,0.0265290046,7.7881145417,0.392266,-2.8521007083
1.40363658334356E+018,0.0027925268,-0.0656243799,0.0104719755,7.84532,0.2860272917,-2.89296175
1.40363658334856E+018,-0.0090757121,-0.0712094335,0.0020943951,7.820803375,0.0980665,-2.8275840833
1.40363658335356E+018,-0.0111701072,-0.0802851456,0.0104719755,7.8616644167,-0.0653776667,-2.6477955
1.40363658335856E+018,-0.0006981317,-0.0900589894,0.0321140582,8.0577974167,-0.196133,-2.4925235417
1.40363658336356E+018,0.0167551608,-0.0935496479,0.0649262482,8.2294137917,-0.2369940417,-2.3699404167
1.40363658336856E+018,0.0376991118,-0.0865683309,0.0977384381,8.4745800417,-0.2533384583,-2.3127349583
1.40363658337356E+018,0.0614355897,-0.0767944871,0.1270599695,8.6135075833,-0.122583125,-2.2963905417
1.40363658337856E+018,0.0795870139,-0.0628318531,0.1500983157,8.605335375,0.0408610417,-2.2391850833
1.40363658338356E+018,0.0970403064,-0.0516617459,0.1647590814,8.4909244583,0.1389275417,-2.2555295
1.40363658338856E+018,0.1117010721,-0.053756141,0.1654572131,8.3519969167,0.2860272917,-2.3454237917
1.40363658339356E+018,0.1214749159,-0.0628318531,0.1535889742,8.0741418333,0.465815875,-2.4598347083
1.40363658339856E+018,0.1228711793,-0.0753982237,0.1207767842,7.9352142917,0.5720545833,-2.5824178333
1.40363658340356E+018,0.1089085453,-0.0844739358,0.0795870139,8.0005919583,0.63743225,-2.8357562917
1.40363658340856E+018,0.0893608577,-0.0949459113,0.034906585,8.0251085833,0.588399,-3.138128
1.40363658341356E+018,0.0712094335,-0.095644043,0,7.9842475417,0.4086104167,-3.334261
1.40363658341856E+018,0.0565486678,-0.088662726,-0.0321140582,7.9760753333,0.073549875,-3.4159830833
1.40363658342356E+018,0.0474729557,-0.095644043,-0.0523598776,7.9597309167,-0.2124774167,-3.4404997083
1.40363658342856E+018,0.0495673508,-0.1040216234,-0.0551524044,8.0087641667,-0.465815875,-3.3179165833
1.40363658343356E+018,0.0628318531,-0.1110029404,-0.0481710874,8.2784470417,-0.6292600417,-3.18716125
1.40363658343856E+018,0.0809832773,-0.1221730476,-0.0376991118,8.5726465417,-0.5475379583,-3.0972669583
1.40363658344356E+018,0.095644043,-0.1312487597,-0.0146607657,8.8178127917,-0.4086104167,-2.9093061667
1.40363658344856E+018,0.1123992038,-0.1270599695,0.0188495559,9.193734375,-0.2778550833,-2.6804843333
1.40363658345356E+018,0.1291543646,-0.116587994,0.0656243799,9.4307284167,-0.2615106667,-2.5170401667
1.40363658345856E+018,0.1445132621,-0.1123992038,0.0942477796,9.5451393333,-0.2288218333,-2.40262925
1.40363658346356E+018,0.1507964474,-0.0998328332,0.1172861257,9.5124505,-0.1552719583,-2.3372515833
1.40363658346856E+018,0.1487020523,-0.0879645943,0.1270599695,9.4715894583,-0.0572054583,-2.40262925
1.40363658347356E+018,0.1445132621,-0.0844739358,0.1319468915,9.3163175,0.1144109167,-2.4843513333
1.40363658347856E+018,0.1270599695,-0.0879645943,0.1186823891,9.0057735833,0.3023717083,-2.6477955
1.40363658348356E+018,0.0984365698,-0.0900589894,0.1012290966,8.801468375,0.4494714583,-2.8275840833
1.40363658348856E+018,0.0656243799,-0.1012290966,0.0760963554,8.5889909583,0.53936575,-2.9501672083
1.40363658349356E+018,0.0293215314,-0.1117010721,0.046774824,8.48275225,0.5557101667,-3.1054391667
1.40363658349856E+018,-0.0027925268,-0.1193805208,0.0090757121,8.507268875,0.44129925,-3.18716125
1.40363658350356E+018,-0.0286233997,-0.1326450232,-0.0286233997,8.605335375,0.4004382083,-3.2770555417
1.40363658350856E+018,-0.0495673508,-0.1382300768,-0.0614355897,8.7687795417,0.34323275,-3.334261
1.40363658351356E+018,-0.0530580093,-0.1396263402,-0.0726056969,8.899534875,0.2124774167,-3.334261
1.40363658351856E+018,-0.0481710874,-0.1375319451,-0.0802851456,9.095667875,0.1634441667,-3.3424332083
1.40363658352356E+018,-0.0356047167,-0.1396263402,-0.0719075652,9.16921775,0.0653776667,-3.2198500833
1.40363658352856E+018,-0.0181514242,-0.1452113938,-0.0586430629,9.2019065833,-0.0408610417,-3.0727503333
1.40363658353356E+018,0.0083775804,-0.149400184,-0.0307177948,9.2836286667,-0.1634441667,-2.9501672083
1.40363658353856E+018,0.0307177948,-0.1591740278,-0.0006981317,9.3244897083,-0.220649625,-2.8030674583
1.40363658354356E+018,0.0439822972,-0.163362818,0.027925268,9.3326619167,-0.1634441667,-2.6641399167
1.40363658354856E+018,0.0439822972,-0.1647590814,0.0495673508,9.3735229583,-0.2369940417,-2.549729
1.40363658355356E+018,0.0453785606,-0.1654572131,0.0712094335,9.3571785417,-0.318716125,-2.525212375
1.40363658355856E+018,0.0390953752,-0.1591740278,0.0858701992,9.2591120417,-0.2369940417,-2.4843513333
1.40363658356356E+018,0.0223402144,-0.156381501,0.1075122819,9.0874956667,-0.220649625,-2.5170401667
1.40363658356856E+018,-0.0048869219,-0.1591740278,0.109606677,9.022118,-0.0980665,-2.5905900417
1.40363658357356E+018,-0.0390953752,-0.1619665546,0.1019272283,8.9567403333,0.0326888333,-2.6641399167
1.40363658357856E+018,-0.0698131701,-0.1752310569,0.0740019603,8.899534875,0.14709975,-2.8112396667
1.40363658358356E+018,-0.109606677,-0.191288086,0.0425860337,8.9403959167,0.2124774167,-2.966511625
1.40363658358856E+018,-0.1361356817,-0.1996656664,0.0034906585,8.97308475,0.2860272917,-3.1299557917
1.40363658359356E+018,-0.1549852376,-0.2094395102,-0.0314159265,9.0302902083,0.3595771667,-3.3260887917
1.40363658359856E+018,-0.1591740278,-0.2199114858,-0.0565486678,9.2345954167,0.4004382083,-3.530394
1.40363658360356E+018,-0.1584758961,-0.2289871979,-0.0719075652,9.1610455417,0.196133,-3.5630828333
1.40363658360856E+018,-0.1361356817,-0.245044227,-0.0600393263,9.144701125,-0.14709975,-3.530394
1.40363658361356E+018,-0.1012290966,-0.259006861,-0.0258308729,9.2264232083,-0.416782625,-3.5957716667
1.40363658361856E+018,-0.0439822972,-0.2736676267,0.0034906585,9.2999730833,-0.6701210833,-3.652977125
1.40363658362356E+018,0.0314159265,-0.2876302607,0.0411897703,9.3735229583,-0.8989429167,-3.6856659583
1.40363658362856E+018,0.0900589894,-0.2911209192,0.0788888822,9.487933875,-0.980665,-3.726527
1.40363658363356E+018,0.1396263402,-0.3001966313,0.1144935989,9.536967125,-0.8989429167,-3.7673880417
1.40363658363856E+018,0.1745329252,-0.3085742118,0.1514945791,9.5124505,-0.784532,-3.7346992083
1.40363658364356E+018,0.1940806128,-0.3148573971,0.1870992958,9.56148375,-0.63743225,-3.751043625
1.40363658364856E+018,0.2031563249,-0.3281218994,0.2199114858,9.5778281667,-0.3840937917,-3.6856659583
1.40363658365356E+018,0.1975712713,-0.3448770602,0.2401573051,9.6268614167,-0.1634441667,-3.5957716667
1.40363658365856E+018,0.1752310569,-0.3539527723,0.2485348855,9.7984777917,0.0163444167,-3.6284605
1.40363658366356E+018,0.1480039206,-0.3707079331,0.2373647783,9.9128887083,0.2288218333,-3.6121160833
1.40363658366856E+018,0.1130973355,-0.3797836452,0.2178170906,10.0436440417,0.367749375,-3.603943875
1.40363658367356E+018,0.0830776724,-0.3832743037,0.2073451151,10.0109552083,0.3840937917,-3.6284605
1.40363658367856E+018,0.0572467995,-0.3860668305,0.2073451151,10.1008495,0.3759215833,-3.7346992083
1.40363658368356E+018,0.0411897703,-0.3930481475,0.2143264321,10.0681606667,0.3840937917,-3.726527
1.40363658368856E+018,0.034906585,-0.4021238597,0.2206096175,10.0599884583,0.269682875,-3.751043625
1.40363658369356E+018,0.0390953752,-0.4077089133,0.2296853296,10.1335383333,0.1879607917,-3.8409379167
1.40363658369856E+018,0.0474729557,-0.4195771522,0.2324778564,10.14988275,0.073549875,-3.898143375
1.40363658370356E+018,0.0628318531,-0.4244640741,0.2345722515,10.1008495,-0.0408610417,-3.92266
1.40363658370856E+018,0.0795870139,-0.4335397862,0.2387610417,10.1171939167,-0.1389275417,-3.9798654583
1.40363658371356E+018,0.0914552528,-0.4384267081,0.2429498319,10.1008495,-0.0163444167,-4.094276375
1.40363658371856E+018,0.1005309649,-0.4426154983,0.2415535685,9.95374975,0.0980665,-4.0125542917
1.40363658372356E+018,0.0984365698,-0.4454080251,0.2261946711,9.95374975,0.0572054583,-3.947176625
1.40363658372856E+018,0.0914552528,-0.4544837372,0.212232037,10.002783,-0.0081722083,-3.9635210417
1.40363658373356E+018,0.0928515162,-0.4558800006,0.2115339053,10.0109552083,-0.024516625,-3.9553488333
1.40363658373856E+018,0.088662726,-0.4516912104,0.2108357736,10.002783,-0.1389275417,-3.9390044167
1.40363658374356E+018,0.0830776724,-0.450294947,0.212232037,10.0599884583,-0.171616375,-3.947176625
1.40363658374856E+018,0.0802851456,-0.4398229715,0.2171189589,10.027299625,-0.1144109167,-4.0779319583
1.40363658375356E+018,0.0740019603,-0.4251622058,0.2303834613,9.9946107917,-0.0980665,-4.1841706667
1.40363658375856E+018,0.0649262482,-0.4118977035,0.2408554368,10.002783,-0.0817220833,-4.2740649583
1.40363658376356E+018,0.0523598776,-0.408407045,0.2485348855,9.9210609167,-0.0326888333,-4.3557870417
1.40363658376856E+018,0.0397935069,-0.3937462792,0.2555162025,9.8965442917,-0.0653776667,-4.4211647083
1.40363658377356E+018,0.0272271363,-0.3979350695,0.2527236757,9.9210609167,-0.1144109167,-4.437509125
1.40363658377856E+018,0.0181514242,-0.4035201231,0.231081593,10.0191274167,-0.1062387083,-4.5192312083
1.40363658378356E+018,0.0076794487,-0.4021238597,0.2073451151,10.0926772917,-0.1307553333,-4.4293369167
1.40363658378856E+018,0.0013962634,-0.3951425427,0.1857030324,10.2152604167,-0.2043052083,-4.339442625
1.40363658379356E+018,-0.0013962634,-0.3888593573,0.1647590814,10.3296713333,-0.2124774167,-4.290409375
1.40363658379856E+018,-0.0034906585,-0.3839724354,0.1417207353,10.2397770417,-0.1389275417,-4.1759984583
1.40363658380356E+018,-0.0041887902,-0.368613538,0.1221730476,10.3133269167,-0.14709975,-4.1351374167
1.40363658380856E+018,-0.0006981317,-0.354650904,0.1061160185,10.272465875,-0.1144109167,-4.1269652083
1.40363658381356E+018,0.0020943951,-0.3399901383,0.0970403064,10.1171939167,-0.14709975,-4.06975975
1.40363658381856E+018,0.0041887902,-0.3274237677,0.0921533845,9.9946107917,-0.3023717083,-4.094276375
1.40363658382356E+018,0.0097738438,-0.3176499239,0.0935496479,9.8720276667,-0.318716125,-4.2005150833
1.40363658382856E+018,0.0083775804,-0.3106686069,0.0977384381,9.7494445417,-0.2941995,-4.2740649583
1.40363658383356E+018,0.0083775804,-0.2918190509,0.1061160185,9.7412723333,-0.2860272917,-4.3803036667
1.40363658383856E+018,0.0055850536,-0.2764601535,0.0998328332,9.80665,-0.2043052083,-4.5274034167
1.40363658384356E+018,-0.0034906585,-0.2652900463,0.095644043,9.85568325,-0.0326888333,-4.6091255
1.40363658384856E+018,-0.0111701072,-0.2562143342,0.0844739358,9.831166625,0.1144109167,-4.6663309583
1.40363658385356E+018,-0.0251327412,-0.2478367538,0.0733038286,9.880199875,0.1307553333,-4.731708625
1.40363658385856E+018,-0.0356047167,-0.2429498319,0.0565486678,10.05181625,0.1552719583,-4.7889140833
1.40363658386356E+018,-0.046774824,-0.2359685149,0.0383972435,10.14988275,0.073549875,-4.7725696667
1.40363658386856E+018,-0.053756141,-0.2261946711,0.0104719755,10.2806380833,0.0572054583,-4.7643974583
1.40363658387356E+018,-0.0558505361,-0.2199114858,-0.0160570291,10.4277378333,0.0163444167,-4.8052585
1.40363658387856E+018,-0.0544542727,-0.2087413785,-0.041887902,10.4767710833,0.0572054583,-4.7643974583
1.40363658388356E+018,-0.0544542727,-0.198269403,-0.0579449312,10.5339765417,-0.0572054583,-4.6908475833
1.40363658388856E+018,-0.0509636142,-0.1829105056,-0.0740019603,10.566665375,-0.196133,-4.731708625
1.40363658389356E+018,-0.0404916386,-0.1724385301,-0.0753982237,10.566665375,-0.2778550833,-4.7398808333
1.40363658389856E+018,-0.0272271363,-0.1612684229,-0.0740019603,10.54214875,-0.4903325,-4.7643974583
1.40363658390356E+018,-0.006981317,-0.1500983157,-0.0628318531,10.5584931667,-0.5802267917,-4.829775125
1.40363658390856E+018,0.0097738438,-0.1480039206,-0.053756141,10.5258043333,-0.4985047083,-4.85429175
1.40363658391356E+018,0.027925268,-0.1347394183,-0.0439822972,10.5094599167,-0.4576436667,-4.8951527917
1.40363658391856E+018,0.0376991118,-0.1291543646,-0.0390953752,10.44408225,-0.3759215833,-5.0095637083
1.40363658392356E+018,0.046774824,-0.1249655744,-0.0356047167,10.468598875,-0.3105439167,-5.0585969583
1.40363658392856E+018,0.0481710874,-0.1137954672,-0.0383972435,10.5094599167,-0.3023717083,-5.123974625
1.40363658393356E+018,0.0481710874,-0.1054178868,-0.0432841654,10.5503209583,-0.3023717083,-5.173007875
1.40363658393856E+018,0.0488692191,-0.10262536,-0.053756141,10.6075264167,-0.2533384583,-5.173007875
1.40363658394356E+018,0.0495673508,-0.0963421747,-0.0600393263,10.5830097917,-0.1797885833,-5.1321468333
1.40363658394856E+018,0.0495673508,-0.0914552528,-0.0698131701,10.5830097917,-0.3023717083,-5.1403190417
1.40363658395356E+018,0.0558505361,-0.0872664626,-0.0781907505,10.7055929167,-0.3759215833,-5.1403190417
1.40363658395856E+018,0.0628318531,-0.0802851456,-0.0753982237,10.6974207083,-0.4249548333,-5.0912857917
1.40363658396356E+018,0.0691150384,-0.0740019603,-0.0628318531,10.811831625,-0.4903325,-5.025908125
1.40363658396856E+018,0.0837758041,-0.0670206433,-0.053756141,10.9997924167,-0.5311935417,-5.05042475
1.40363658397356E+018,0.0949459113,-0.0586430629,-0.0293215314,10.9997924167,-0.4985047083,-5.0095637083
1.40363658397856E+018,0.1068141502,-0.0446804289,-0.0104719755,11.056997875,-0.4576436667,-4.9932192917
1.40363658398356E+018,0.1089085453,-0.0363028484,0.0090757121,11.1877532083,-0.3514049583,-5.0095637083
1.40363658398856E+018,0.1110029404,-0.0328121899,0.020943951,11.204097625,-0.269682875,-5.0340803333
1.40363658399356E+018,0.1110029404,-0.0202458193,0.0265290046,11.253130875,-0.2288218333,-4.976874875
1.40363658399856E+018,0.1123992038,-0.0188495559,0.0321140582,11.2939919167,-0.24516625,-5.0013915
1.40363658400356E+018,0.1151917306,-0.013962634,0.0370009801,11.32668075,-0.2043052083,-5.0422525417
1.40363658400856E+018,0.1200786525,-0.0076794487,0.0383972435,11.2449586667,-0.220649625,-5.0177359167
1.40363658401356E+018,0.1284562329,0.0055850536,0.0404916386,11.2449586667,-0.2860272917,-5.025908125
1.40363658401856E+018,0.1368338134,0.0118682389,0.0432841654,11.22861425,-0.2615106667,-5.0667691667
1.40363658402356E+018,0.1466076572,0.0181514242,0.0439822972,11.1142033333,-0.2288218333,-5.123974625
1.40363658402856E+018,0.1535889742,0.0286233997,0.0390953752,11.13054775,-0.2124774167,-5.173007875
1.40363658403356E+018,0.1521927108,0.0251327412,0.0363028484,11.155064375,-0.0572054583,-5.14849125
1.40363658403856E+018,0.1535889742,0.0265290046,0.0321140582,11.155064375,0.0326888333,-5.0912857917
1.40363658404356E+018,0.1487020523,0.0251327412,0.0258308729,11.2449586667,0.0980665,-5.0340803333
1.40363658404856E+018,0.1417207353,0.0195476876,0.0216420827,11.4410916667,0.0817220833,-5.0667691667
1.40363658405356E+018,0.142418867,0.0153588974,0.0230383461,11.547330375,0.1389275417,-4.927841625
1.40363658405856E+018,0.1396263402,0.0167551608,0.0272271363,11.6699135,0.0898942917,-4.8624639583
1.40363658406356E+018,0.1410226036,0.020943951,0.0321140582,11.8823909167,0.1307553333,-4.8216029167
1.40363658406856E+018,0.1403244719,0.0195476876,0.0481710874,11.9968018333,0.1307553333,-4.75622525
1.40363658407356E+018,0.13543755,0.0286233997,0.0635299848,11.988629625,0.14709975,-4.7643974583
1.40363658407856E+018,0.1340412866,0.0314159265,0.0781907505,11.988629625,0.122583125,-4.7643974583
1.40363658408356E+018,0.1319468915,0.0307177948,0.0865683309,11.9314241667,0.2124774167,-4.7643974583
1.40363658408856E+018,0.1256637061,0.0321140582,0.1040216234,11.8006688333,0.171616375,-4.7889140833
1.40363658409356E+018,0.1137954672,0.0300196631,0.1110029404,11.7026023333,0.1634441667,-4.8134307083
1.40363658409856E+018,0.1082104136,0.0230383461,0.1047197551,11.62088025,0.14709975,-4.8624639583
1.40363658410356E+018,0.0963421747,0.0195476876,0.0998328332,11.596363625,0.0980665,-4.8951527917
1.40363658410856E+018,0.0851720675,0.0097738438,0.0893608577,11.6290524583,0.024516625,-4.9605304583
1.40363658411356E+018,0.0788888822,0.0090757121,0.0830776724,11.6127080417,-0.024516625,-5.0177359167
1.40363658411856E+018,0.0788888822,0.0104719755,0.0733038286,11.6045358333,-0.0081722083,-5.0831135833
1.40363658412356E+018,0.0781907505,0.0160570291,0.0656243799,11.6290524583,-0.04903325,-5.0667691667
1.40363658412856E+018,0.0788888822,0.013962634,0.0586430629,11.7107745417,-0.0326888333,-5.1321468333
1.40363658413356E+018,0.0823795407,0.0146607657,0.0565486678,11.6617412917,-0.024516625,-5.1076302083
1.40363658413856E+018,0.0788888822,0.0167551608,0.0565486678,11.7352911667,-0.0653776667,-5.1566634583
1.40363658414356E+018,0.0802851456,0.0174532925,0.0572467995,11.8987353333,-0.0408610417,-5.2056967083
1.40363658414856E+018,0.0795870139,0.0146607657,0.0614355897,11.9069075417,0.073549875,-5.173007875
1.40363658415356E+018,0.074700092,0.0202458193,0.0635299848,11.8987353333,0.1797885833,-5.1076302083
1.40363658415856E+018,0.0684169067,0.020943951,0.0649262482,11.8006688333,0.171616375,-5.0912857917
1.40363658416356E+018,0.060737458,0.0188495559,0.0565486678,11.7598077917,0.2043052083,-5.074941375
1.40363658416856E+018,0.0488692191,0.0195476876,0.0516617459,11.6045358333,0.073549875,-5.0422525417
1.40363658417356E+018,0.0425860337,0.0293215314,0.0488692191,11.4656082917,0.024516625,-5.0177359167
1.40363658417856E+018,0.0342084533,0.0286233997,0.0460766923,11.2694752917,0.0572054583,-5.0422525417
1.40363658418356E+018,0.0293215314,0.0300196631,0.0432841654,11.0651700833,0.04903325,-5.0095637083
1.40363658418856E+018,0.020943951,0.0321140582,0.0390953752,10.8853815,0.024516625,-5.0013915
1.40363658419356E+018,0.0132645023,0.0300196631,0.0404916386,10.73828175,-0.0081722083,-5.0585969583
1.40363658419856E+018,0.006981317,0.0314159265,0.041887902,10.6320430417,-0.04903325,-5.025908125
1.40363658420356E+018,0,0.0335103216,0.0488692191,10.6729040833,-0.1144109167,-4.9932192917
1.40363658420856E+018,-0.0020943951,0.0356047167,0.0579449312,10.6892485,-0.196133,-5.0422525417
1.40363658421356E+018,0.0013962634,0.041887902,0.0684169067,10.7791427917,-0.171616375,-5.0095637083
1.40363658421856E+018,0.0020943951,0.0565486678,0.081681409,10.83634825,-0.1634441667,-5.0095637083
1.40363658422356E+018,0.0034906585,0.0663225116,0.0949459113,10.93441475,-0.1062387083,-5.025908125
1.40363658422856E+018,-0.0006981317,0.0726056969,0.0984365698,10.909898125,-0.0898942917,-4.9605304583
1.40363658423356E+018,0.0027925268,0.0795870139,0.0984365698,10.9425869583,-0.1062387083,-4.9850470833
1.40363658423856E+018,0.0020943951,0.0823795407,0.0935496479,10.9507591667,-0.04903325,-4.9605304583
1.40363658424356E+018,0.0006981317,0.0865683309,0.081681409,10.83634825,-0.0081722083,-4.8461195417
1.40363658424856E+018,0.0027925268,0.0935496479,0.0733038286,10.6565596667,-0.0163444167,-4.7725696667
1.40363658425356E+018,0.0083775804,0.095644043,0.067718775,10.517632125,-0.0653776667,-4.7153642083
1.40363658425856E+018,0.0055850536,0.1019272283,0.060737458,10.3378435417,-0.0572054583,-4.6172977083
1.40363658426356E+018,0.0097738438,0.1054178868,0.0586430629,10.1335383333,-0.0980665,-4.5519200417
1.40363658426856E+018,0.0083775804,0.1068141502,0.0593411946,10.002783,-0.122583125,-4.535575625
1.40363658427356E+018,0.0118682389,0.1061160185,0.0586430629,9.8475110417,-0.1634441667,-4.4211647083
1.40363658427856E+018,0.0118682389,0.1005309649,0.0586430629,9.80665,-0.171616375,-4.3476148333
1.40363658428356E+018,0.0083775804,0.1068141502,0.053756141,9.80665,-0.024516625,-4.388475875
1.40363658428856E+018,-0.0062831853,0.10262536,0.0509636142,9.8883720833,0.1552719583,-4.4538535417
1.40363658429356E+018,-0.0188495559,0.1054178868,0.0586430629,9.95374975,0.196133,-4.486542375
1.40363658429856E+018,-0.0328121899,0.109606677,0.0733038286,9.9128887083,0.1062387083,-4.4293369167
1.40363658430356E+018,-0.0363028484,0.1089085453,0.0949459113,9.978266375,-0.0163444167,-4.3803036667
1.40363658430856E+018,-0.027925268,0.1054178868,0.1130973355,10.125366125,-0.0408610417,-4.4129925
1.40363658431356E+018,-0.0223402144,0.1061160185,0.123569311,10.2152604167,-0.0081722083,-4.437509125
1.40363658431856E+018,-0.0223402144,0.1040216234,0.1263618378,10.4032212083,0.1307553333,-4.4293369167
1.40363658432356E+018,-0.0237364778,0.1019272283,0.1158898623,10.5094599167,0.3023717083,-4.437509125
1.40363658432856E+018,-0.027925268,0.0991347015,0.0872664626,10.6320430417,0.4004382083,-4.388475875
1.40363658433356E+018,-0.0370009801,0.0935496479,0.0530580093,10.7954872083,0.4086104167,-4.3476148333
1.40363658433856E+018,-0.0488692191,0.0907571211,0.0160570291,10.7954872083,0.4739880833,-4.3067537917
1.40363658434356E+018,-0.0593411946,0.0893608577,-0.0202458193,10.6892485,0.4576436667,-4.2740649583
1.40363658434856E+018,-0.0691150384,0.0907571211,-0.0516617459,10.6075264167,0.4821602917,-4.290409375
1.40363658435356E+018,-0.0830776724,0.0809832773,-0.067718775,10.4767710833,0.4494714583,-4.2250317083
1.40363658435856E+018,-0.095644043,0.0830776724,-0.081681409,10.2969825,0.416782625,-4.241376125
1.40363658436356E+018,-0.1047197551,0.0879645943,-0.0837758041,10.1580549583,0.392266,-4.3476148333
1.40363658436856E+018,-0.1144935989,0.0949459113,-0.0781907505,9.9946107917,0.416782625,-4.4048202917
1.40363658437356E+018,-0.1312487597,0.0977384381,-0.0691150384,9.782133375,0.269682875,-4.4129925
1.40363658437856E+018,-0.1459095255,0.1019272283,-0.0642281165,9.635033625,0.1634441667,-4.388475875
1.40363658438356E+018,-0.1612684229,0.0991347015,-0.0600393263,9.5941725833,0.073549875,-4.4538535417
1.40363658438856E+018,-0.1752310569,0.0963421747,-0.0523598776,9.4797616667,0.0898942917,-4.4293369167
1.40363658439356E+018,-0.1822123739,0.0977384381,-0.0474729557,9.5206227083,-0.0081722083,-4.388475875
1.40363658439856E+018,-0.1891936909,0.0970403064,-0.0411897703,9.610517,-0.0653776667,-4.339442625
1.40363658440356E+018,-0.1898918226,0.0984365698,-0.0300196631,9.6432058333,-0.073549875,-4.2332039167
1.40363658440856E+018,-0.191288086,0.1047197551,-0.0146607657,9.7412723333,-0.0572054583,-4.2086872917
1.40363658441356E+018,-0.1884955592,0.1193805208,-0.0013962634,9.80665,0.0326888333,-4.1351374167
1.40363658441856E+018,-0.1794198471,0.1249655744,0.0097738438,9.782133375,0.0817220833,-4.0779319583
1.40363658442356E+018,-0.1696460033,0.1389282085,0.0104719755,9.7494445417,0.14709975,-4.0043820833
1.40363658442856E+018,-0.1577777644,0.1473057889,0.0048869219,9.6513780417,0.2043052083,-4.0043820833
1.40363658443356E+018,-0.1514945791,0.1514945791,-0.0055850536,9.5778281667,0.2778550833,-4.045243125
1.40363658443856E+018,-0.1403244719,0.156381501,-0.0174532925,9.4225562083,0.2778550833,-4.0615875417
1.40363658444356E+018,-0.1340412866,0.1619665546,-0.0307177948,9.3326619167,0.2288218333,-4.1106207917
1.40363658444856E+018,-0.123569311,0.1661553448,-0.0411897703,9.2754564583,0.1797885833,-4.192342875
1.40363658445356E+018,-0.1172861257,0.1752310569,-0.0453785606,9.1773899583,0.0898942917,-4.2577205417
1.40363658445856E+018,-0.1151917306,0.1850049007,-0.0446804289,9.1610455417,0.0326888333,-4.3721314583
1.40363658446356E+018,-0.1068141502,0.1905899543,-0.041887902,9.242767625,0,-4.4211647083
1.40363658446856E+018,-0.1075122819,0.1947787445,-0.0376991118,9.2836286667,-0.04903325,-4.4783701667
1.40363658447356E+018,-0.1040216234,0.2038544566,-0.0293215314,9.3490063333,-0.171616375,-4.46202575
1.40363658447856E+018,-0.1040216234,0.2045525883,-0.0216420827,9.3490063333,-0.2860272917,-4.437509125
1.40363658448356E+018,-0.0949459113,0.2150245638,0.0020943951,9.4797616667,-0.3268883333,-4.3557870417
1.40363658448856E+018,-0.081681409,0.2220058809,0.034906585,9.487933875,-0.3840937917,-4.290409375
1.40363658449356E+018,-0.0698131701,0.2296853296,0.0670206433,9.5042782917,-0.3105439167,-4.1759984583
1.40363658449856E+018,-0.0586430629,0.2331759881,0.1019272283,9.4307284167,-0.196133,-4.0288987083
1.40363658450356E+018,-0.053756141,0.245044227,0.1277581012,9.3490063333,-0.0898942917,-3.9390044167
1.40363658450856E+018,-0.0579449312,0.2548180708,0.1459095255,9.414384,0.0163444167,-3.92266
1.40363658451356E+018,-0.060737458,0.2638937829,0.1619665546,9.2509398333,0.1552719583,-3.849110125
1.40363658451856E+018,-0.0614355897,0.2813470754,0.1752310569,9.0793234583,0.2124774167,-3.8082490833
1.40363658452356E+018,-0.0628318531,0.2946115777,0.177325452,8.97308475,0.3350605417,-3.8409379167
1.40363658452856E+018,-0.0663225116,0.293913446,0.1766273203,8.825985,0.416782625,-3.8245935
1.40363658453356E+018,-0.074700092,0.2974041045,0.163362818,8.87501825,0.416782625,-3.898143375
1.40363658453856E+018,-0.0844739358,0.2974041045,0.1326450232,9.0302902083,0.3595771667,-3.8899711667
1.40363658454356E+018,-0.0879645943,0.293913446,0.0907571211,9.095667875,0.367749375,-3.947176625
1.40363658454856E+018,-0.0900589894,0.2932153143,0.0649262482,9.1528733333,0.367749375,-3.8817989583
1.40363658455356E+018,-0.0830776724,0.2932153143,0.0453785606,9.2591120417,0.2778550833,-3.8654545417
1.40363658455856E+018,-0.0830776724,0.2988003679,0.0383972435,9.4307284167,0.2043052083,-3.8817989583
1.40363658456356E+018,-0.0837758041,0.3148573971,0.0488692191,9.4797616667,0.1389275417,-3.947176625
1.40363658456856E+018,-0.0830776724,0.3364994798,0.0663225116,9.4470728333,-0.024516625,-3.9798654583
1.40363658457356E+018,-0.0795870139,0.3504621138,0.081681409,9.3163175,-0.073549875,-3.9880376667
1.40363658457856E+018,-0.0830776724,0.361632221,0.0977384381,9.1365289167,-0.04903325,-3.898143375
1.40363658458356E+018,-0.0865683309,0.3783873818,0.1137954672,8.8668460417,0,-3.87362675
1.40363658458856E+018,-0.1019272283,0.375594855,0.1312487597,8.7360907083,0.1307553333,-3.8899711667
1.40363658459356E+018,-0.1172861257,0.3741985916,0.1396263402,8.5154410833,0.14709975,-3.849110125
1.40363658459856E+018,-0.1291543646,0.3832743037,0.1507964474,8.48275225,0.073549875,-3.8164212917
1.40363658460356E+018,-0.1417207353,0.3923500158,0.1584758961,8.4010301667,0.024516625,-3.8409379167
1.40363658460856E+018,-0.1487020523,0.4049163865,0.1598721595,8.3928579583,0.122583125,-3.8164212917
1.40363658461356E+018,-0.1528908425,0.4063126499,0.163362818,8.262102625,0.122583125,-3.6856659583
1.40363658461856E+018,-0.1535889742,0.4132939669,0.1619665546,8.2784470417,0.1307553333,-3.652977125
1.40363658462356E+018,-0.1591740278,0.4125958352,0.1640609497,8.2457582083,0.196133,-3.5712550417
1.40363658462856E+018,-0.163362818,0.4118977035,0.1675516082,8.2702748333,0.1634441667,-3.5385662083
1.40363658463356E+018,-0.1647590814,0.4216715473,0.1640609497,8.4745800417,0.171616375,-3.6366327083
1.40363658463856E+018,-0.1675516082,0.4286528643,0.1556833693,8.5889909583,0.171616375,-3.6856659583
1.40363658464356E+018,-0.1654572131,0.44331363,0.1431169987,8.654368625,0.1062387083,-3.751043625
1.40363658464856E+018,-0.1598721595,0.4565781323,0.1291543646,8.6707130417,0.0898942917,-3.8164212917
1.40363658465356E+018,-0.1584758961,0.4684463712,0.1075122819,8.6380242083,0.122583125,-3.8245935
1.40363658465856E+018,-0.1514945791,0.4649557127,0.0914552528,8.5154410833,0.2288218333,-3.800076875
1.40363658466356E+018,-0.1473057889,0.4628613176,0.0760963554,8.4418912083,0.1797885833,-3.7346992083
1.40363658466856E+018,-0.1396263402,0.4509930787,0.0670206433,8.4255467917,0.0653776667,-3.702010375
1.40363658467356E+018,-0.1312487597,0.4482005519,0.0649262482,8.409202375,0.1144109167,-3.702010375
1.40363658467856E+018,-0.1291543646,0.450294947,0.0712094335,8.3438247083,-0.0326888333,-3.6448049167
1.40363658468356E+018,-0.1249655744,0.457276264,0.0858701992,8.28661925,-0.0326888333,-3.6121160833
1.40363658468856E+018,-0.1214749159,0.4684463712,0.10262536,8.1395195,-0.0572054583,-3.4977051667
1.40363658469356E+018,-0.1193805208,0.4768239516,0.1151917306,7.8534922083,-0.0898942917,-3.3424332083
1.40363658469856E+018,-0.1256637061,0.478220215,0.123569311,7.6410147917,0.0081722083,-3.2933999583
1.40363658470356E+018,-0.1333431549,0.4656538444,0.1228711793,7.5102594583,0.0898942917,-3.1953334583
1.40363658470856E+018,-0.1528908425,0.4509930787,0.1144935989,7.4612262083,0.171616375,-3.1054391667
1.40363658471356E+018,-0.1696460033,0.4384267081,0.1082104136,7.575637125,0.220649625,-3.0318892917
1.40363658471856E+018,-0.1822123739,0.422369679,0.1012290966,7.7472535,0.196133,-2.941995
1.40363658472356E+018,-0.1891936909,0.4195771522,0.1054178868,7.89435325,0.1634441667,-2.8847895417
1.40363658472856E+018,-0.1926843494,0.422369679,0.116587994,8.065969625,0.0817220833,-2.917478375
1.40363658473356E+018,-0.1822123739,0.4265584692,0.1326450232,8.262102625,0.073549875,-2.9746838333
1.40363658473856E+018,-0.1682497399,0.4335397862,0.1452113938,8.2947914583,0.073549875,-2.99102825
1.40363658474356E+018,-0.156381501,0.4384267081,0.1480039206,8.38468575,0.171616375,-3.0482337083
1.40363658474856E+018,-0.142418867,0.4300491277,0.1368338134,8.4909244583,0.3023717083,-3.1463002083
1.40363658475356E+018,-0.1396263402,0.4167846254,0.1117010721,8.360169125,0.3595771667,-3.1299557917
1.40363658475856E+018,-0.1312487597,0.3986332012,0.0733038286,8.3356525,0.318716125,-3.1299557917
1.40363658476356E+018,-0.1228711793,0.3748967233,0.0488692191,8.3765135417,0.220649625,-3.18716125
1.40363658476856E+018,-0.1151917306,0.361632221,0.0370009801,8.3193080833,0.1389275417,-3.1299557917
1.40363658477356E+018,-0.0998328332,0.3644247478,0.0363028484,8.2457582083,-0.0817220833,-3.113611375
1.40363658477856E+018,-0.0935496479,0.3658210112,0.0488692191,8.2294137917,-0.1552719583,-3.138128
1.40363658478356E+018,-0.0788888822,0.3658210112,0.0684169067,7.9515587083,-0.0898942917,-3.0482337083
1.40363658478856E+018,-0.0663225116,0.3630284844,0.0879645943,7.722736875,-0.1389275417,-2.9746838333
1.40363658479356E+018,-0.0628318531,0.3609340893,0.1054178868,7.526603875,-0.1634441667,-2.941995
1.40363658479856E+018,-0.060737458,0.3469714553,0.1249655744,7.2977820417,-0.1307553333,-2.8847895417
1.40363658480356E+018,-0.0579449312,0.3378957432,0.1410226036,7.1751989167,-0.0408610417,-2.721345375
1.40363658480856E+018,-0.0558505361,0.3246312409,0.1556833693,7.085304625,-0.0326888333,-2.6396232917
1.40363658481356E+018,-0.0558505361,0.3155555288,0.1759291886,7.134337875,-0.0163444167,-2.574245625
1.40363658481856E+018,-0.060737458,0.3064798167,0.1850049007,7.1997155417,0.04903325,-2.4516625
1.40363658482356E+018,-0.0642281165,0.3050835532,0.1864011641,7.2977820417,-0.04903325,-2.427145875
1.40363658482856E+018,-0.0586430629,0.3057816849,0.1850049007,7.4203651667,-0.1062387083,-2.476179125
1.40363658483356E+018,-0.0516617459,0.3085742118,0.1884955592,7.428537375,-0.0980665,-2.4598347083
1.40363658483856E+018,-0.0432841654,0.3113667386,0.1933824811,7.3468152917,-0.0653776667,-2.5415567917
1.40363658484356E+018,-0.0300196631,0.3001966313,0.1961750079,7.3468152917,0.0572054583,-2.5905900417
1.40363658484856E+018,-0.0244346095,0.2841396022,0.191288086,7.2732654167,0.2124774167,-2.5333845833
1.40363658485356E+018,-0.0272271363,0.2715732316,0.1850049007,7.3468152917,0.220649625,-2.5579012083
1.40363658485856E+018,-0.0293215314,0.252025544,0.1626646863,7.4448817917,0.3105439167,-2.5170401667
1.40363658486356E+018,-0.0293215314,0.2366666466,0.1396263402,7.5347760833,0.2533384583,-2.4353180833
1.40363658486856E+018,-0.0258308729,0.2296853296,0.116587994,7.4612262083,0.1634441667,-2.3617682083
1.40363658487356E+018,-0.0146607657,0.2275909345,0.1110029404,7.4448817917,0.024516625,-2.3454237917
1.40363658487856E+018,-0.0006981317,0.2254965394,0.1193805208,7.3141264583,0.0163444167,-2.2391850833
1.40363658488356E+018,0.0125663706,0.2234021443,0.1333431549,7.0280991667,-0.0898942917,-2.1002575417
1.40363658488856E+018,0.0237364778,0.2164208272,0.149400184,6.7665885,-0.2043052083,-2.0593965
1.40363658489356E+018,0.0335103216,0.2073451151,0.1647590814,6.5295944583,-0.2124774167,-1.9695022083
1.40363658489856E+018,0.0411897703,0.2017600615,0.1689478716,6.3171170417,-0.196133,-1.91229675
1.40363658490356E+018,0.0397935069,0.1884955592,0.1759291886,6.22722275,-0.1144109167,-1.8714357083
1.40363658490856E+018,0.0356047167,0.1724385301,0.184306769,6.2108783333,-0.0163444167,-1.81423025
1.40363658491356E+018,0.0251327412,0.1619665546,0.1919862177,6.2108783333,0.122583125,-1.6753027083
1.40363658491856E+018,0.0097738438,0.1514945791,0.198269403,6.300772625,0.1062387083,-1.6344416667
1.40363658492356E+018,-0.0055850536,0.13543755,0.2031563249,6.496905625,0.1634441667,-1.6017528333
1.40363658492856E+018,-0.020943951,0.1340412866,0.2073451151,6.6031443333,0.220649625,-1.5282029583
1.40363658493356E+018,-0.034906585,0.1326450232,0.212232037,6.6521775833,0.2369940417,-1.544547375
1.40363658493856E+018,-0.0397935069,0.1214749159,0.2199114858,6.6848664167,0.318716125,-1.5118585417
1.40363658494356E+018,-0.0495673508,0.1110029404,0.2254965394,6.7012108333,0.4086104167,-1.4546530833
1.40363658494856E+018,-0.0628318531,0.1047197551,0.2220058809,6.6766942083,0.5066769167,-1.4628252917
1.40363658495356E+018,-0.0788888822,0.0914552528,0.2157226955,6.7992773333,0.63743225,-1.5608917917
1.40363658495856E+018,-0.0942477796,0.0788888822,0.1968731396,6.7584162917,0.6946377083,-1.5527195833
1.40363658496356E+018,-0.1089085453,0.0628318531,0.1759291886,6.7093830417,0.5720545833,-1.495514125
1.40363658496856E+018,-0.1151917306,0.0425860337,0.1521927108,6.7012108333,0.367749375,-1.4546530833
1.40363658497356E+018,-0.1130973355,0.0272271363,0.1291543646,6.6113165417,0.2860272917,-1.4383086667
1.40363658497856E+018,-0.1082104136,0.0153588974,0.109606677,6.545938875,0.1307553333,-1.4873419167
1.40363658498356E+018,-0.0970403064,0.0104719755,0.1061160185,6.5377666667,-0.0163444167,-1.5282029583
1.40363658498856E+018,-0.081681409,0.0013962634,0.1068141502,6.5295944583,-0.0980665,-1.5282029583
1.40363658499356E+018,-0.0656243799,-0.0020943951,0.1158898623,6.349805875,-0.1797885833,-1.569064
1.40363658499856E+018,-0.0509636142,-0.006981317,0.1249655744,6.2680837917,-0.2860272917,-1.6099250417
1.40363658500356E+018,-0.0356047167,-0.0125663706,0.1375319451,6.2680837917,-0.1634441667,-1.6834749167
1.40363658500856E+018,-0.0293215314,-0.0195476876,0.1445132621,6.1781895,-0.04903325,-1.691647125
1.40363658501356E+018,-0.0286233997,-0.0258308729,0.1556833693,6.2599115833,0.04903325,-1.838746875
1.40363658501856E+018,-0.0390953752,-0.0335103216,0.1577777644,6.3171170417,0.122583125,-1.887780125
1.40363658502356E+018,-0.0481710874,-0.0328121899,0.156381501,6.398839125,0.220649625,-1.9531577917
1.40363658502856E+018,-0.0600393263,-0.0321140582,0.1521927108,6.4805612083,0.2615106667,-1.9531577917
1.40363658503356E+018,-0.0740019603,-0.0383972435,0.142418867,6.5786277083,0.269682875,-1.9449855833
1.40363658503856E+018,-0.0823795407,-0.046774824,0.1312487597,6.7093830417,0.3595771667,-1.887780125
1.40363658504356E+018,-0.0907571211,-0.0495673508,0.1200786525,6.7338996667,0.3514049583,-1.8632635
1.40363658504856E+018,-0.0998328332,-0.0544542727,0.1061160185,6.938204875,0.34323275,-1.8714357083
1.40363658505356E+018,-0.0984365698,-0.0628318531,0.0949459113,7.036271375,0.3023717083,-1.8550912917
1.40363658505856E+018,-0.0970403064,-0.0670206433,0.0844739358,7.0934768333,0.1552719583,-1.8060580417
1.40363658506356E+018,-0.0830776724,-0.0691150384,0.0760963554,7.1506822917,-0.0081722083,-1.7733692083
1.40363658506856E+018,-0.0691150384,-0.0726056969,0.0760963554,7.0934768333,-0.0817220833,-1.6834749167
1.40363658507356E+018,-0.0488692191,-0.0726056969,0.0809832773,6.9954103333,-0.2124774167,-1.6099250417
1.40363658507856E+018,-0.0244346095,-0.074700092,0.0809832773,7.01175475,-0.2941995,-1.6753027083
1.40363658508356E+018,-0.0055850536,-0.0753982237,0.0858701992,6.9708937083,-0.2860272917,-1.7488525833
1.40363658508856E+018,0.0132645023,-0.0726056969,0.0928515162,6.8319661667,-0.1552719583,-1.7570247917
1.40363658509356E+018,0.020943951,-0.067718775,0.1040216234,6.7257274583,-0.122583125,-1.8305746667
1.40363658509856E+018,0.020943951,-0.0691150384,0.1068141502,6.7093830417,0.073549875,-1.9204689583
1.40363658510356E+018,0.0153588974,-0.0760963554,0.1110029404,6.6521775833,0.2288218333,-2.0267076667
1.40363658510856E+018,-0.0013962634,-0.0733038286,0.1117010721,6.7012108333,0.34323275,-2.181979625
1.40363658511356E+018,-0.020943951,-0.0767944871,0.1117010721,6.7992773333,0.4821602917,-2.231012875
1.40363658511856E+018,-0.0488692191,-0.0823795407,0.1144935989,6.8319661667,0.514849125,-2.1901518333
1.40363658512356E+018,-0.0719075652,-0.0879645943,0.1179842574,6.938204875,0.4249548333,-2.1983240417
1.40363658512856E+018,-0.0907571211,-0.0977384381,0.1186823891,7.0771324167,0.4004382083,-2.1656352083
1.40363658513356E+018,-0.1047197551,-0.1012290966,0.1186823891,7.2896098333,0.4249548333,-2.132946375
1.40363658513856E+018,-0.1158898623,-0.0970403064,0.1186823891,7.4857428333,0.367749375,-2.0185354583
1.40363658514356E+018,-0.1298524963,-0.0970403064,0.1110029404,7.6900480417,0.3514049583,-2.0267076667
1.40363658514856E+018,-0.1326450232,-0.0942477796,0.0921533845,7.7799423333,0.3023717083,-2.0267076667
1.40363658515356E+018,-0.13543755,-0.0907571211,0.0753982237,7.771770125,0.2288218333,-1.9531577917
1.40363658515856E+018,-0.1312487597,-0.0928515162,0.0593411946,7.8534922083,0.220649625,-1.9940188333
1.40363658516356E+018,-0.1214749159,-0.0984365698,0.046774824,7.8126311667,0.1797885833,-2.0185354583
1.40363658516856E+018,-0.1179842574,-0.1012290966,0.0390953752,7.722736875,0.1307553333,-2.0675687083
1.40363658517356E+018,-0.1103048087,-0.1005309649,0.0363028484,7.673703625,0.1879607917,-2.1656352083
1.40363658517856E+018,-0.1068141502,-0.1033234917,0.0397935069,7.5592927083,0.2369940417,-2.2637017083
1.40363658518356E+018,-0.1047197551,-0.10262536,0.0523598776,7.5919815417,0.3595771667,-2.329079375
1.40363658518856E+018,-0.1117010721,-0.10262536,0.0628318531,7.649187,0.4086104167,-2.378112625
1.40363658519356E+018,-0.116587994,-0.109606677,0.0740019603,7.7309090833,0.392266,-2.40262925
1.40363658519856E+018,-0.1193805208,-0.1089085453,0.0802851456,7.7799423333,0.367749375,-2.378112625
1.40363658520356E+018,-0.1214749159,-0.1117010721,0.0733038286,7.79628675,0.2941995,-2.329079375
1.40363658520856E+018,-0.1221730476,-0.1130973355,0.0635299848,7.9433865,0.367749375,-2.3372515833
1.40363658521356E+018,-0.1256637061,-0.1137954672,0.0460766923,8.016936375,0.5230213333,-2.3127349583
1.40363658521856E+018,-0.1319468915,-0.1123992038,0.0272271363,8.1558639167,0.6210878333,-2.329079375
1.40363658522356E+018,-0.1438151304,-0.1103048087,0.0034906585,8.3438247083,0.6701210833,-2.4108014583
1.40363658522856E+018,-0.1535889742,-0.1110029404,-0.0223402144,8.433719,0.6292600417,-2.40262925
1.40363658523356E+018,-0.1535889742,-0.1130973355,-0.046774824,8.5481299167,0.392266,-2.40262925
1.40363658523856E+018,-0.149400184,-0.1130973355,-0.074700092,8.7606073333,0.24516625,-2.4925235417
1.40363658524356E+018,-0.1382300768,-0.1130973355,-0.0942477796,8.77695175,0,-2.549729
1.40363658524856E+018,-0.1256637061,-0.1089085453,-0.1151917306,8.7197462917,-0.0817220833,-2.574245625
1.40363658525356E+018,-0.1061160185,-0.1047197551,-0.1207767842,8.7197462917,-0.14709975,-2.7131731667
1.40363658525856E+018,-0.0921533845,-0.1019272283,-0.1082104136,8.6707130417,-0.04903325,-2.7540342083
1.40363658526356E+018,-0.0795870139,-0.0998328332,-0.081681409,8.5399577083,0.04903325,-2.770378625
1.40363658526856E+018,-0.0733038286,-0.0963421747,-0.053756141,8.4990966667,0.196133,-2.8112396667
1.40363658527356E+018,-0.0774926188,-0.1005309649,-0.0230383461,8.507268875,0.2941995,-2.7540342083
1.40363658527856E+018,-0.0802851456,-0.0935496479,-0.0006981317,8.507268875,0.34323275,-2.721345375
1.40363658528356E+018,-0.0900589894,-0.095644043,0,8.5644743333,0.367749375,-2.8275840833
1.40363658528856E+018,-0.0984365698,-0.0991347015,0,8.67888525,0.4249548333,-2.8357562917
1.40363658529356E+018,-0.1061160185,-0.0900589894,-0.0146607657,8.703401875,0.5066769167,-2.8521007083
1.40363658529856E+018,-0.1158898623,-0.0865683309,-0.034906585,8.7360907083,0.5965712083,-2.79489525
1.40363658530356E+018,-0.1284562329,-0.0872664626,-0.0642281165,8.8178127917,0.6456044583,-2.8439285
1.40363658530856E+018,-0.1361356817,-0.0921533845,-0.0914552528,8.7851239583,0.5475379583,-2.8357562917
1.40363658531356E+018,-0.1333431549,-0.0949459113,-0.1228711793,8.77695175,0.3023717083,-2.868445125
1.40363658531856E+018,-0.1228711793,-0.095644043,-0.1466076572,8.8423294167,0.0817220833,-2.9746838333
1.40363658532356E+018,-0.1040216234,-0.0984365698,-0.1605702912,8.8586738333,-0.04903325,-3.0564059167
1.40363658532856E+018,-0.0851720675,-0.0977384381,-0.1689478716,8.825985,-0.171616375,-3.1463002083
1.40363658533356E+018,-0.0628318531,-0.0914552528,-0.1661553448,8.8423294167,-0.196133,-3.18716125
1.40363658533856E+018,-0.0370009801,-0.0984365698,-0.149400184,8.801468375,-0.1144109167,-3.1544724167
1.40363658534356E+018,-0.0223402144,-0.10262536,-0.1179842574,8.7606073333,-0.0572054583,-3.0809225417
1.40363658534856E+018,-0.006981317,-0.1054178868,-0.0802851456,8.9077070833,0.1307553333,-3.064578125
1.40363658535356E+018,-0.0048869219,-0.1144935989,-0.0363028484,9.144701125,0.3105439167,-3.0400615
1.40363658535856E+018,-0.0034906585,-0.1144935989,-0.0104719755,9.3081452917,0.367749375,-3.0727503333
1.40363658536356E+018,-0.0132645023,-0.1110029404,-0.0027925268,9.5124505,0.2941995,-2.9992004583
1.40363658536856E+018,-0.0251327412,-0.1130973355,-0.0034906585,9.6023447917,0.2533384583,-3.015544875
1.40363658537356E+018,-0.0335103216,-0.1110029404,-0.0027925268,9.56148375,0.2778550833,-2.966511625
1.40363658537856E+018,-0.0383972435,-0.1089085453,0.0027925268,9.5042782917,0.318716125,-2.8847895417
1.40363658538356E+018,-0.0397935069,-0.1158898623,0.006981317,9.536967125,0.3105439167,-2.9093061667
1.40363658538856E+018,-0.0404916386,-0.1263618378,0.0076794487,9.5533115417,0.2778550833,-2.9583394167
1.40363658539356E+018,-0.0335103216,-0.1326450232,0,9.5941725833,0.2043052083,-3.0073726667
1.40363658539856E+018,-0.0230383461,-0.1312487597,-0.0160570291,9.6758946667,0.1307553333,-3.2361945
1.40363658540356E+018,-0.0027925268,-0.1326450232,-0.0383972435,9.586000375,0.0163444167,-3.4486719167
1.40363658540856E+018,0.020943951,-0.1291543646,-0.0544542727,9.3163175,-0.1144109167,-3.5712550417
1.40363658541356E+018,0.0488692191,-0.1256637061,-0.0593411946,9.1528733333,-0.1144109167,-3.77556025
1.40363658541856E+018,0.0823795407,-0.1326450232,-0.0530580093,8.87501825,-0.0081722083,-3.87362675
1.40363658542356E+018,0.1082104136,-0.1459095255,-0.0363028484,8.6625408333,0.0980665,-3.9553488333
1.40363658542856E+018,0.1312487597,-0.1556833693,-0.0244346095,8.6625408333,0.24516625,-4.0125542917
1.40363658543356E+018,0.1403244719,-0.1675516082,-0.006981317,8.67888525,0.367749375,-4.0861041667
1.40363658543856E+018,0.1466076572,-0.1752310569,0.0097738438,8.7442629167,0.3595771667,-4.0534153333
1.40363658544356E+018,0.1459095255,-0.1780235837,0.0160570291,8.87501825,0.2941995,-3.9553488333
1.40363658544856E+018,0.1438151304,-0.1801179788,0.0202458193,9.0548068333,0.1552719583,-3.9144877917
1.40363658545356E+018,0.1431169987,-0.1745329252,0.027925268,9.095667875,0.0572054583,-3.8082490833
1.40363658545856E+018,0.1410226036,-0.1717403984,0.027925268,9.2264232083,0.0081722083,-3.7837324583
1.40363658546356E+018,0.1389282085,-0.1731366618,0.0342084533,9.4062117917,0.14709975,-3.7101825833
1.40363658546856E+018,0.1312487597,-0.1745329252,0.0397935069,9.5533115417,0.318716125,-3.603943875
1.40363658547356E+018,0.1207767842,-0.1815142422,0.0370009801,9.635033625,0.44129925,-3.530394
1.40363658547856E+018,0.0998328332,-0.1933824811,0.0293215314,9.831166625,0.4821602917,-3.5140495833
1.40363658548356E+018,0.095644043,-0.2010619298,0.0258308729,9.880199875,0.588399,-3.4895329583
1.40363658548856E+018,0.0935496479,-0.2010619298,0.0111701072,9.9619219583,0.5475379583,-3.4486719167
1.40363658549356E+018,0.088662726,-0.2031563249,0.0013962634,10.076332875,0.4985047083,-3.554910625
1.40363658549856E+018,0.0900589894,-0.1989675347,-0.0041887902,10.0599884583,0.5066769167,-3.7346992083
1.40363658550356E+018,0.1005309649,-0.1905899543,0.0027925268,9.978266375,0.392266,-3.8572823333
1.40363658550856E+018,0.1158898623,-0.1857030324,0.0118682389,9.8148222083,0.2288218333,-4.094276375
1.40363658551356E+018,0.1389282085,-0.1822123739,0.0307177948,9.65955025,0.0653776667,-4.2985815833
1.40363658551856E+018,0.170344135,-0.1857030324,0.0523598776,9.4470728333,0.0081722083,-4.4129925
1.40363658552356E+018,0.2017600615,-0.1947787445,0.0621337214,9.3081452917,-0.0081722083,-4.535575625
1.40363658552856E+018,0.2268928028,-0.2080432468,0.0649262482,9.340834125,0.04903325,-4.6745031667
1.40363658553356E+018,0.245044227,-0.2143264321,0.0614355897,9.3816951667,0.1144109167,-4.6908475833
1.40363658553856E+018,0.2611012561,-0.2164208272,0.0551524044,9.5042782917,0.1552719583,-4.6990197917
1.40363658554356E+018,0.2687807048,-0.2171189589,0.0390953752,9.684066875,0.2615106667,-4.7235364167
1.40363658554856E+018,0.2736676267,-0.2178170906,0.0237364778,9.7984777917,0.44129925,-4.6254699167
1.40363658555356E+018,0.2715732316,-0.2087413785,0.0055850536,9.8720276667,0.514849125,-4.5764366667
1.40363658555856E+018,0.2631956512,-0.2115339053,-0.006981317,10.0109552083,0.5311935417,-4.5437478333
1.40363658556356E+018,0.2562143342,-0.2108357736,-0.0090757121,10.076332875,0.5475379583,-4.36395925
1.40363658556856E+018,0.259006861,-0.2136283004,-0.0055850536,10.076332875,0.34323275,-4.290409375
1.40363658557356E+018,0.2617993878,-0.212232037,0.0104719755,10.1580549583,0.196133,-4.2740649583
1.40363658557856E+018,0.2673844414,-0.2143264321,0.0397935069,10.223432625,0.220649625,-4.192342875
1.40363658558356E+018,0.2687807048,-0.2136283004,0.0705113018,10.1825715833,0.1879607917,-4.1024485833
1.40363658558856E+018,0.2701769682,-0.2157226955,0.0963421747,10.1580549583,0.1062387083,-4.0370709167
1.40363658559356E+018,0.2708750999,-0.2220058809,0.123569311,10.2806380833,0.171616375,-3.996209875
1.40363658559856E+018,0.272969495,-0.2275909345,0.1375319451,10.272465875,0.2043052083,-3.898143375
1.40363658560356E+018,0.2722713633,-0.2275909345,0.1528908425,10.370532375,0.24516625,-3.898143375
1.40363658560856E+018,0.2687807048,-0.2387610417,0.1507964474,10.5258043333,0.318716125,-3.9390044167
1.40363658561356E+018,0.2597049927,-0.2436479636,0.149400184,10.5748375833,0.4004382083,-3.9144877917
1.40363658561856E+018,0.2548180708,-0.2457423587,0.149400184,10.6565596667,0.392266,-3.9880376667
1.40363658562356E+018,0.2478367538,-0.245044227,0.1507964474,10.8036594167,0.4004382083,-4.1269652083
1.40363658562856E+018,0.2471386221,-0.2499311489,0.1528908425,10.83634825,0.3595771667,-4.2086872917
1.40363658563356E+018,0.2499311489,-0.2513274123,0.1521927108,10.762798375,0.3514049583,-4.2985815833
1.40363658563856E+018,0.2513274123,-0.2478367538,0.1500983157,10.7709705833,0.24516625,-4.4947145833
1.40363658564356E+018,0.2499311489,-0.2464404904,0.1459095255,10.762798375,0.14709975,-4.6499865417
1.40363658564856E+018,0.2597049927,-0.245044227,0.1438151304,10.5830097917,0.0081722083,-4.7398808333
1.40363658565356E+018,0.2638937829,-0.2429498319,0.1459095255,10.419565625,-0.122583125,-4.7970862917
1.40363658565856E+018,0.2736676267,-0.2506292806,0.1556833693,10.1662271667,-0.2043052083,-4.7235364167
1.40363658566356E+018,0.2827433388,-0.2583087293,0.1654572131,9.9946107917,-0.1552719583,-4.56009225
1.40363658566856E+018,0.2848377339,-0.265988178,0.1675516082,9.9700941667,-0.1307553333,-4.4947145833
1.40363658567356E+018,0.2820452071,-0.2722713633,0.1731366618,10.0436440417,-0.0817220833,-4.3557870417
1.40363658567856E+018,0.279950812,-0.2673844414,0.177325452,10.1417105417,0.04903325,-4.2740649583
1.40363658568356E+018,0.2785545486,-0.2638937829,0.1808161105,10.1907437917,0.2043052083,-4.0779319583
1.40363658568856E+018,0.2652900463,-0.2631956512,0.1808161105,10.2806380833,0.3759215833,-4.0043820833
1.40363658569356E+018,0.252025544,-0.2687807048,0.1857030324,10.3296713333,0.5230213333,-3.898143375
