% Mike Stanley's IMU Data Logger
% Date & Time   Thursday 06 January 2011  -  12:50:24 PM
% MagX, AccX and GyroX values are centered at 0 LSB
% Accelerometer Range = +/- 6g
% Gyroscope     Range = +/- 2000 degrees/second
% Magnetometer  Range = +/- 200uT
% Recorder      Michael Stanley
% Comments      Horizontal nudge of IMU
% SampleNumber MagX MagY MagZ AccX AccY AccZ GyroR GyroP GyroY LButton RButton
1 383 -25 585 2 2 353 -515 -534 -529 0 0 
2 382 -30 586 2 2 352 -516 -534 -529 0 0 
3 379 -25 586 2 2 353 -515 -534 -529 0 0 
4 383 -27 585 2 2 353 -516 -534 -529 0 0 
5 379 -27 584 1 2 354 -516 -534 -530 0 0 
6 380 -25 587 1 2 354 -516 -535 -529 0 0 
7 382 -24 586 1 2 355 -516 -534 -529 0 0 
8 379 -26 585 2 1 355 -516 -535 -530 0 0 
9 379 -31 585 2 2 354 -516 -534 -529 0 0 
10 380 -28 586 2 2 353 -516 -534 -529 0 0 
11 380 -26 585 1 3 354 -516 -534 -529 0 0 
12 379 -28 585 1 3 353 -515 -534 -529 0 0 
13 378 -30 585 1 3 352 -516 -534 -529 0 0 
14 381 -30 585 1 3 353 -516 -534 -530 0 0 
15 378 -33 585 1 2 352 -516 -534 -529 0 0 
16 381 -31 586 1 2 353 -516 -535 -530 0 0 
17 380 -27 585 1 1 353 -516 -535 -529 0 0 
18 378 -28 586 2 0 354 -516 -534 -530 0 0 
19 381 -26 583 2 0 354 -515 -534 -529 0 0 
20 380 -27 586 3 1 354 -515 -534 -530 0 0 
21 378 -27 586 3 2 354 -516 -534 -530 0 0 
22 381 -21 586 3 2 353 -516 -534 -529 0 0 
23 382 -21 586 2 3 353 -515 -534 -529 0 0 
24 382 -20 586 1 3 353 -515 -534 -530 0 0 
25 383 -20 586 0 3 353 -516 -534 -529 0 0 
26 381 -17 587 0 3 352 -515 -535 -530 0 0 
27 379 -18 585 0 2 353 -516 -534 -529 0 0 
28 384 -24 585 1 1 353 -516 -535 -530 0 0 
29 379 -29 586 1 1 354 -516 -535 -530 0 0 
30 384 -31 587 2 1 353 -515 -534 -530 0 0 
31 381 -25 585 2 1 353 -515 -534 -529 0 0 
32 380 -33 585 3 2 354 -515 -534 -529 0 0 
33 380 -29 584 2 3 353 -516 -534 -530 0 0 
34 380 -27 585 1 3 353 -516 -534 -529 0 0 
35 381 -27 584 1 3 353 -515 -534 -530 0 0 
36 384 -24 587 1 2 353 -516 -533 -530 0 0 
37 383 -24 587 0 1 354 -516 -534 -530 0 0 
38 382 -22 586 1 1 354 -516 -535 -529 0 0 
39 380 -22 586 2 1 355 -516 -535 -529 0 0 
40 381 -24 586 3 1 354 -515 -534 -530 0 0 
41 383 -26 586 3 1 354 -515 -534 -529 0 0 
42 382 -28 587 3 2 353 -516 -534 -530 0 0 
43 381 -24 585 2 3 353 -515 -534 -529 0 0 
44 382 -27 586 1 3 353 -515 -534 -530 0 0 
45 380 -28 589 1 3 353 -515 -534 -530 0 0 
46 378 -19 587 0 2 354 -516 -534 -529 0 0 
47 382 -30 588 0 1 354 -516 -534 -529 0 0 
48 380 -22 587 0 1 355 -516 -534 -529 0 0 
49 381 -29 586 2 1 354 -516 -534 -529 0 0 
50 380 -23 586 2 1 354 -515 -534 -529 0 0 
51 379 -39 587 3 2 353 -515 -534 -529 0 0 
52 384 -31 587 3 3 353 -516 -534 -529 0 0 
53 380 -22 586 2 3 353 -516 -534 -529 0 0 
54 383 -14 586 2 3 353 -516 -534 -530 0 0 
55 380 -22 588 1 3 354 -516 -534 -530 0 0 
56 380 -23 587 1 1 355 -515 -534 -530 0 0 
57 386 -19 586 1 1 354 -516 -534 -530 0 0 
58 381 -13 585 1 0 355 -515 -534 -529 0 0 
59 384 -18 584 2 0 354 -516 -534 -530 0 0 
60 380 -20 587 2 1 354 -515 -534 -530 0 0 
61 382 -22 586 2 2 354 -515 -534 -529 0 0 
62 385 -16 586 2 4 353 -516 -534 -529 0 0 
63 384 -19 588 1 4 353 -516 -534 -529 0 0 
64 381 -18 585 1 4 353 -515 -534 -530 0 0 
65 381 -27 586 1 3 355 -516 -533 -529 0 0 
66 382 -18 586 0 2 354 -516 -534 -530 0 0 
67 386 -25 587 1 1 354 -515 -535 -530 0 0 
68 382 -16 585 1 1 355 -516 -533 -530 0 0 
69 381 -22 586 2 0 354 -515 -534 -530 0 0 
70 383 -20 587 2 1 354 -516 -533 -529 0 0 
71 380 -26 587 2 2 353 -516 -534 -529 0 0 
72 380 -23 587 2 3 353 -515 -534 -529 0 0 
73 385 -28 587 2 3 353 -516 -534 -530 0 0 
74 383 -23 589 2 3 353 -515 -535 -529 0 0 
75 382 -24 588 1 2 354 -515 -534 -529 0 0 
76 381 -21 588 1 1 353 -516 -534 -530 0 0 
77 383 -28 587 1 1 353 -516 -535 -530 0 0 
78 381 -33 585 1 1 353 -516 -534 -530 0 0 
79 382 -26 589 1 1 353 -516 -534 -529 0 0 
80 383 -26 587 1 2 353 -516 -534 -529 0 0 
81 383 -19 588 1 3 353 -515 -534 -529 0 0 
82 387 -20 586 1 4 353 -515 -534 -530 0 0 
83 383 -25 588 1 3 353 -516 -534 -529 0 0 
84 384 -18 588 1 3 353 -516 -534 -530 0 0 
85 383 -27 586 1 2 353 -515 -534 -530 0 0 
86 382 -25 587 1 1 354 -516 -534 -530 0 0 
87 380 -24 587 2 0 354 -515 -534 -530 0 0 
88 382 -20 586 2 0 354 -515 -534 -529 0 0 
89 386 -22 585 2 1 354 -516 -534 -529 0 0 
90 380 -20 587 2 1 354 -516 -534 -529 0 0 
91 384 -20 588 1 3 353 -515 -534 -530 0 0 
92 385 -27 588 2 3 353 -516 -534 -529 0 0 
93 382 -28 586 1 3 353 -516 -534 -529 0 0 
94 382 -32 587 1 3 353 -516 -535 -530 0 0 
95 387 -16 589 1 2 354 -516 -534 -529 0 0 
96 383 -27 587 1 1 353 -515 -534 -530 0 0 
97 385 -32 586 1 1 354 -516 -534 -529 0 0 
98 382 -28 587 1 1 354 -516 -534 -529 0 0 
99 383 -27 587 1 2 353 -515 -535 -530 0 0 
100 382 -31 585 1 2 354 -516 -534 -530 0 0 
101 382 -29 586 8 -7 352 -515 -534 -529 0 0 
102 382 -29 587 30 -68 352 -515 -535 -520 0 0 
103 383 -34 586 31 -119 351 -516 -534 -503 0 0 
104 380 -42 587 20 -72 352 -515 -534 -490 0 0 
105 385 -40 588 24 -75 355 -516 -534 -482 0 0 
106 380 -49 588 28 -83 352 -515 -535 -476 0 0 
107 380 -51 587 29 -96 352 -515 -535 -471 0 0 
108 378 -65 587 28 -85 356 -515 -534 -467 0 0 
109 378 -64 587 24 -70 355 -515 -533 -464 0 0 
110 376 -65 587 -13 -39 353 -515 -534 -459 0 0 
111 377 -74 586 -21 -4 353 -515 -535 -455 0 0 
112 374 -78 587 -19 20 351 -516 -534 -454 0 0 
113 370 -88 585 -9 53 352 -516 -534 -460 0 0 
114 367 -86 586 -6 77 353 -515 -535 -467 0 0 
115 370 -85 587 -3 78 347 -516 -536 -474 0 0 
116 366 -89 586 -1 86 357 -515 -535 -484 0 0 
117 366 -87 587 0 100 359 -516 -535 -495 0 0 
118 368 -93 587 0 110 352 -515 -534 -506 0 0 
119 366 -89 587 1 99 356 -515 -534 -517 0 0 
120 368 -90 585 -2 90 354 -516 -533 -529 0 0 
121 367 -87 586 -4 84 354 -515 -534 -536 0 0 
122 367 -87 585 -3 58 355 -516 -534 -540 0 0 
123 369 -93 586 -1 8 354 -516 -534 -542 0 0 
124 368 -87 586 1 2 354 -516 -534 -543 0 0 
125 369 -84 586 1 -2 354 -516 -534 -542 0 0 
126 366 -83 585 1 -8 356 -516 -533 -541 0 0 
127 368 -84 585 4 -11 354 -515 -534 -535 0 0 
128 368 -86 585 3 -2 352 -516 -534 -533 0 0 
129 370 -84 587 3 -1 352 -516 -534 -532 0 0 
130 367 -82 587 3 -1 353 -515 -535 -530 0 0 
131 369 -85 587 2 2 353 -516 -534 -529 0 0 
132 371 -86 585 1 3 353 -515 -534 -529 0 0 
133 367 -90 588 1 3 353 -515 -534 -530 0 0 
134 368 -86 588 1 2 354 -516 -534 -530 0 0 
135 369 -86 584 1 2 353 -516 -534 -529 0 0 
136 371 -91 586 1 1 353 -516 -535 -530 0 0 
137 369 -88 586 1 1 354 -516 -534 -530 0 0 
138 370 -93 586 1 1 354 -515 -534 -530 0 0 
139 367 -97 585 2 2 354 -515 -534 -530 0 0 
140 367 -85 585 2 2 354 -515 -534 -529 0 0 
141 367 -86 586 2 2 354 -515 -534 -529 0 0 
142 368 -85 585 2 2 354 -515 -534 -529 0 0 
143 368 -95 586 1 2 354 -515 -533 -529 0 0 
144 366 -89 586 2 2 355 -516 -534 -529 0 0 
145 366 -89 586 2 2 355 -516 -534 -529 0 0 
146 366 -87 586 2 1 355 -515 -534 -529 0 0 
147 366 -87 585 1 1 355 -515 -533 -530 0 0 
148 368 -85 587 2 1 354 -516 -534 -529 0 0 
149 369 -84 587 2 2 354 -515 -534 -530 0 0 
150 366 -82 587 2 2 353 -515 -534 -530 0 0 
151 367 -78 585 1 3 353 -516 -534 -530 0 0 
152 366 -82 585 1 3 353 -515 -535 -530 0 0 
153 367 -94 586 1 2 353 -515 -534 -529 0 0 
154 368 -89 587 1 2 353 -516 -534 -530 0 0 
155 367 -85 587 1 2 354 -516 -535 -530 0 0 
156 367 -78 587 2 1 353 -516 -534 -529 0 0 
157 370 -81 587 2 1 353 -516 -535 -530 0 0 
158 365 -83 587 2 1 353 -515 -534 -530 0 0 
159 369 -86 587 2 2 353 -515 -534 -530 0 0 
160 372 -87 587 2 2 353 -515 -534 -530 0 0 
161 367 -87 586 2 2 353 -515 -534 -530 0 0 
162 373 -83 587 1 2 353 -515 -534 -529 0 0 
163 367 -81 585 1 2 352 -516 -534 -530 0 0 
164 368 -85 585 1 2 353 -515 -534 -529 0 0 
165 370 -84 585 1 2 353 -516 -534 -529 0 0 
166 367 -85 588 1 1 353 -516 -534 -530 0 0 
167 366 -86 586 1 1 353 -516 -534 -530 0 0 
168 367 -92 585 2 2 354 -515 -534 -530 0 0 
169 366 -90 583 1 2 354 -515 -534 -530 0 0 
170 371 -85 585 2 2 353 -515 -534 -530 0 0 
171 370 -86 587 2 2 353 -516 -534 -529 0 0 
172 366 -83 587 1 2 353 -516 -534 -529 0 0 
173 367 -82 587 1 2 353 -516 -534 -530 0 0 
174 368 -83 587 1 2 353 -516 -534 -530 0 0 
175 369 -87 587 1 1 354 -515 -535 -529 0 0 
176 366 -81 588 2 1 354 -515 -534 -529 0 0 
177 366 -81 586 2 1 354 -515 -534 -529 0 0 
178 368 -90 587 1 2 354 -515 -534 -530 0 0 
179 370 -92 588 2 2 354 -515 -534 -529 0 0 
180 368 -91 584 2 2 353 -516 -535 -530 0 0 
181 366 -87 586 2 2 354 -515 -534 -529 0 0 
182 369 -86 586 2 2 353 -515 -534 -529 0 0 
183 367 -87 588 1 2 354 -516 -534 -530 0 0 
184 368 -89 582 1 2 354 -516 -534 -530 0 0 
185 365 -90 584 1 1 354 -516 -534 -529 0 0 
186 369 -85 586 1 1 354 -516 -534 -529 0 0 
187 369 -87 587 1 2 354 -516 -534 -530 0 0 
188 368 -89 586 1 2 354 -515 -535 -529 0 0 
189 368 -85 585 2 2 354 -516 -534 -530 0 0 
190 367 -84 587 2 2 354 -515 -534 -530 0 0 
191 367 -84 587 2 2 353 -516 -534 -529 0 0 
192 369 -86 586 1 2 353 -516 -534 -529 0 0 
193 366 -93 584 2 2 354 -515 -533 -530 0 0 
194 367 -91 585 2 2 354 -515 -533 -530 0 0 
195 366 -93 587 2 1 354 -516 -534 -529 0 0 
196 367 -93 586 1 1 354 -516 -534 -530 0 0 
197 368 -88 586 1 1 355 -516 -534 -529 0 0 
198 367 -88 586 2 2 354 -516 -535 -530 0 0 
199 367 -91 585 1 2 354 -515 -534 -530 0 0 
200 366 -84 586 2 2 354 -516 -534 -529 0 0 
201 366 -88 586 2 2 354 -516 -534 -530 0 0 
202 369 -89 585 2 2 354 -516 -535 -529 0 0 
203 368 -84 585 1 2 354 -515 -534 -529 0 0 
204 368 -89 586 1 2 354 -516 -534 -530 0 0 
205 368 -83 586 1 2 354 -516 -534 -529 0 0 
206 365 -79 585 1 2 354 -515 -534 -530 0 0 
207 366 -89 585 1 2 354 -516 -535 -529 0 0 
208 366 -93 586 2 2 354 -515 -534 -529 0 0 
209 365 -78 586 2 2 354 -516 -533 -529 0 0 
210 366 -82 586 2 2 354 -516 -534 -529 0 0 
211 364 -84 588 2 2 353 -516 -534 -529 0 0 
212 366 -92 583 2 2 353 -516 -534 -530 0 0 
213 365 -95 586 2 2 353 -515 -534 -530 0 0 
214 368 -94 586 1 2 353 -516 -534 -529 0 0 
215 365 -90 586 1 2 353 -516 -534 -529 0 0 
216 365 -87 584 1 2 354 -516 -534 -529 0 0 
217 367 -87 584 2 2 353 -515 -534 -530 0 0 
218 366 -87 587 2 2 353 -516 -534 -530 0 0 
219 370 -88 585 2 2 353 -516 -534 -530 0 0 
220 366 -82 584 1 3 353 -515 -535 -529 0 0 
221 368 -85 583 1 3 354 -516 -535 -530 0 0 
222 367 -86 587 1 3 353 -515 -535 -530 0 0 
223 364 -85 584 1 2 356 -515 -534 -530 0 0 
224 366 -84 585 1 1 356 -516 -535 -530 0 0 
225 369 -84 586 2 0 355 -516 -535 -530 0 0 
226 365 -87 584 2 -1 356 -516 -534 -530 0 0 
227 365 -89 585 3 0 356 -516 -534 -530 0 0 
228 368 -96 582 3 1 354 -516 -534 -530 0 0 
229 367 -88 587 3 2 354 -515 -534 -530 0 0 
230 366 -87 582 2 4 352 -516 -534 -530 0 0 
231 365 -89 585 1 4 352 -516 -534 -530 0 0 
232 366 -88 585 0 4 353 -515 -534 -529 0 0 
233 365 -95 583 0 3 354 -516 -534 -530 0 0 
234 365 -89 584 0 2 354 -515 -534 -530 0 0 
235 363 -87 584 0 1 354 -515 -534 -530 0 0 
236 363 -90 583 2 -1 355 -515 -534 -529 0 0 
237 368 -90 586 3 0 354 -516 -534 -529 0 0 
238 363 -94 584 3 0 354 -515 -534 -529 0 0 
239 364 -89 585 3 3 353 -515 -534 -530 0 0 
240 364 -87 584 2 3 353 -516 -534 -530 0 0 
241 366 -87 586 1 4 353 -514 -534 -530 0 0 
242 366 -89 585 1 4 353 -516 -534 -530 0 0 
243 364 -89 585 0 3 354 -516 -533 -529 0 0 
244 370 -86 583 0 2 354 -516 -534 -529 0 0 
245 365 -90 585 1 1 355 -515 -534 -529 0 0 
246 365 -90 586 2 0 354 -516 -535 -530 0 0 
247 366 -91 586 3 0 354 -515 -534 -530 0 0 
248 365 -90 584 3 1 354 -516 -534 -529 0 0 
249 362 -94 586 3 2 353 -515 -533 -530 0 0 
250 364 -92 585 3 3 353 -516 -534 -530 0 0 
251 367 -89 584 2 3 353 -515 -534 -529 0 0 
252 365 -93 582 0 3 353 -515 -534 -529 0 0 
253 369 -86 583 0 3 354 -516 -534 -529 0 0 
254 364 -90 584 -1 3 353 -515 -534 -530 0 0 
255 363 -92 583 0 2 354 -516 -534 -530 0 0 
256 363 -89 585 0 1 354 -516 -534 -529 0 0 
257 364 -88 585 1 1 355 -516 -534 -529 0 0 
258 367 -93 586 2 1 355 -515 -534 -529 0 0 
259 364 -94 586 3 1 355 -515 -534 -529 0 0 
260 363 -99 585 4 2 354 -516 -534 -530 0 0 
261 363 -101 585 4 2 354 -515 -535 -529 0 0 
262 363 -91 586 3 2 355 -515 -534 -529 0 0 
263 368 -93 584 2 2 355 -516 -535 -529 0 0 
264 365 -92 584 1 2 355 -515 -535 -529 0 0 
265 364 -99 585 0 2 354 -516 -534 -530 0 0 
266 364 -96 586 0 2 355 -515 -535 -530 0 0 
267 363 -90 583 0 2 355 -516 -534 -529 0 0 
268 367 -90 583 1 2 354 -515 -534 -530 0 0 
269 364 -90 584 2 2 354 -515 -534 -529 0 0 
270 363 -94 586 3 2 354 -515 -535 -530 0 0 
271 365 -91 585 3 2 354 -516 -535 -529 0 0 
272 365 -86 585 3 2 353 -516 -535 -529 0 0 
273 364 -86 584 2 2 353 -515 -534 -530 0 0 
274 364 -90 586 2 2 353 -516 -534 -530 0 0 
275 365 -84 585 0 2 353 -516 -535 -530 0 0 
276 362 -90 586 0 2 353 -515 -534 -530 0 0 
277 365 -87 586 0 2 353 -516 -534 -530 0 0 
278 364 -97 584 1 2 353 -516 -534 -529 0 0 
279 369 -93 585 1 2 354 -516 -534 -530 0 0 
280 364 -93 583 2 2 354 -515 -533 -530 0 0 
281 364 -94 585 3 2 354 -516 -534 -529 0 0 
282 365 -97 584 3 1 354 -515 -534 -529 0 0 
283 367 -93 586 3 1 354 -516 -533 -529 0 0 
284 368 -88 585 2 1 354 -516 -534 -530 0 0 
285 366 -89 585 1 2 354 -515 -534 -529 0 0 
286 363 -88 586 1 2 354 -515 -534 -530 0 0 
287 363 -90 584 0 2 354 -515 -534 -529 0 0 
288 364 -88 584 0 2 354 -515 -535 -529 0 0 
289 365 -84 585 0 2 354 -516 -534 -529 0 0 
290 366 -91 586 1 2 354 -516 -534 -530 0 0 
291 364 -90 585 2 2 354 -516 -534 -529 0 0 
292 364 -88 585 2 2 353 -515 -534 -530 0 0 
293 365 -91 584 3 2 353 -515 -534 -529 0 0 
294 367 -91 584 3 1 354 -515 -533 -529 0 0 
295 365 -95 585 2 1 354 -515 -534 -530 0 0 
296 368 -89 584 2 2 354 -515 -535 -530 0 0 
297 363 -93 583 1 2 354 -516 -535 -530 0 0 
298 366 -100 585 1 2 354 -516 -534 -530 0 0 
299 363 -90 584 1 2 354 -516 -534 -530 0 0 
300 366 -94 584 1 2 353 -515 -534 -529 0 0 
301 363 -89 584 1 2 353 -516 -534 -529 0 0 
302 365 -98 584 2 2 352 -515 -535 -530 0 0 
303 364 -91 584 2 2 353 -516 -534 -530 0 0 
304 368 -90 585 2 1 353 -515 -534 -529 0 0 
305 370 -89 584 2 1 353 -515 -534 -529 0 0 
306 369 -92 586 2 2 353 -516 -535 -529 0 0 
307 369 -91 586 1 2 354 -516 -534 -530 0 0 
308 364 -89 584 1 2 354 -516 -534 -529 0 0 
309 364 -90 585 1 2 355 -516 -534 -529 0 0 
310 365 -89 587 1 2 354 -516 -534 -530 0 0 
311 364 -87 583 1 2 354 -515 -534 -530 0 0 
312 365 -98 586 1 2 354 -515 -534 -530 0 0 
313 363 -91 584 2 2 354 -516 -534 -530 0 0 
314 362 -91 586 2 2 354 -515 -534 -529 0 0 
315 366 -89 585 2 2 353 -515 -535 -529 0 0 
316 364 -89 586 2 2 354 -516 -534 -530 0 0 

% Total Sample Count = 316.
% Sample Count Used for mean/std calculations = 316.

%                                  MagX     MagY     MagZ     AccX     AccY     AccZ     % GyroR   GyroP    GyroY  LButton  RButton
% Means                      :  371.000  -66.000  585.000    1.000    2.000  353.000 -515.000 -534.000 -526.000    0.000    0.000 
% Standard Deviations        :    7.533   30.139    1.345    4.653   20.514    0.979    0.504    0.467   12.590    0.000    0.000 
% Maximums                   :      387      -13      589       31      110      359     -514     -533     -454        0        0 
% Minimums                   :      362     -101      582      -21     -119      347     -516     -536     -543        0        0 
% Range (Maximums - Minimums):       25       88        7       52      229       12        2        3       89        0        0 
